SessionID,SessionDate,SessionDuration,SessionFrequency,RecordID,Timestamp,timeIntervalSince1970,GyroX,GyroY,GyroZ,AccX,AccY,AccZ,MagX,MagY,MagZ,WatchTimestamp,WatchtImeIntervalSince1970,WatchGyroX,WatchGyroY,WatchGyroZ,WatchAccX,WatchAccY,WatchAccZ
0,2019-06-14 10:20:22.4300,05:13,50,0,2019-06-14 10:20:22.4510,1560522022.4506369,-0.05333938820876103,0.041068340854002926,-0.002129197291518351,-0.0084991455078125,-0.0086669921875,-0.9615478515625,255.50172424316406,170.5256805419922,-616.1643676757812,,,,,,,,,,
0,2019-06-14 10:20:22.4300,05:13,50,0,2019-06-14 10:20:22.4780,1560522022.4777498,-0.05333938820876103,0.041068340854002926,-0.002129197291518351,-0.0005340576171875,-0.00640869140625,-1.0221099853515625,226.3710174560547,192.2374267578125,-619.3857421875,,,,,,,,,,
0,2019-06-14 10:20:22.4300,05:13,50,0,2019-06-14 10:20:22.4940,1560522022.4935231,-0.05333938820876103,0.041068340854002926,-0.002129197291518351,-0.0005340576171875,-0.00640869140625,-1.0221099853515625,226.92752075195312,192.71864318847656,-619.3875732421875,,,,,,,,,,
0,2019-06-14 10:20:22.4300,05:13,50,0,2019-06-14 10:20:22.5110,1560522022.5111852,-0.05333938820876103,0.041068340854002926,-0.002129197291518351,-0.0010986328125,-0.008819580078125,-1.00396728515625,227.04873657226562,192.34466552734375,-619.2507934570312,,,,,,,,,,
0,2019-06-14 10:20:22.4300,05:13,50,0,2019-06-14 10:20:22.5440,1560522022.54416,-0.01689056658160955,0.015532088109560133,-0.012288091585734613,0.0001220703125,-0.0066986083984375,-0.9927978515625,226.5639190673828,192.2660369873047,-619.2241821289062,,,,,,,,,,
0,2019-06-14 10:20:22.4300,05:13,50,0,2019-06-14 10:20:22.5610,1560522022.561018,-0.01689056658160955,0.015532088109560133,-0.012288091585734613,0.000701904296875,-0.009796142578125,-0.9946441650390625,226.4073486328125,192.20909118652344,-619.4547119140625,,,,,,,,,,
0,2019-06-14 10:20:22.4300,05:13,50,0,2019-06-14 10:20:22.5780,1560522022.577909,-0.01704742676981522,0.017461015687104526,-0.011959457507218834,-0.0011749267578125,-0.0056304931640625,-0.9975128173828125,226.4073486328125,192.20909118652344,-619.4547119140625,,,,,,,,,,
0,2019-06-14 10:20:22.4300,05:13,50,0,2019-06-14 10:20:22.5940,1560522022.594142,-0.017345434495795085,0.017087640502275417,-0.012195413579799856,-0.0011749267578125,-0.0056304931640625,-0.9975128173828125,226.48570251464844,192.2059326171875,-619.1302490234375,,,,,,,,,,
0,2019-06-14 10:20:22.4300,05:13,50,0,2019-06-14 10:20:22.6110,1560522022.6110082,-0.01775529498755828,0.015593340814631956,-0.012525112922751665,-3.0517578125e-05,-0.0048828125,-0.99310302734375,227.10882568359375,192.48268127441406,-619.1763916015625,,,,,,,,,,
0,2019-06-14 10:20:22.4300,05:13,50,0,2019-06-14 10:20:22.6450,1560522022.644534,-0.018201907102364568,0.016062856114812927,-0.01324150325598298,-0.0002288818359375,-0.0054779052734375,-1.0003814697265625,226.4840087890625,192.1185302734375,-619.1666259765625,,,,,,,,,,
0,2019-06-14 10:20:22.4300,05:13,50,0,2019-06-14 10:20:22.6610,1560522022.661026,-0.018201907102364568,0.016062856114812927,-0.01324150325598298,0.0003662109375,-0.005889892578125,-1.0074005126953125,226.73583984375,192.14625549316406,-619.5638427734375,,,,,,,,,,
0,2019-06-14 10:20:22.4300,05:13,50,0,2019-06-14 10:20:22.6780,1560522022.677946,-0.017629327467997533,0.018171813382046674,-0.011701397197590157,-0.000335693359375,-0.0057830810546875,-1.0052032470703125,226.41432189941406,192.2733612060547,-619.3677978515625,,,,,,,,,,
0,2019-06-14 10:20:22.4300,05:13,50,0,2019-06-14 10:20:22.6930,1560522022.693193,-0.01761547903032912,0.015457253282928907,-0.013700365911803633,-0.000335693359375,-0.0057830810546875,-1.0052032470703125,226.41432189941406,192.2733612060547,-619.3677978515625,,,,,,,,,,
0,2019-06-14 10:20:22.4300,05:13,50,0,2019-06-14 10:20:22.7110,1560522022.711152,-0.018328407254143333,0.016892963426590624,-0.012621785670321541,0.0009307861328125,-0.0051422119140625,-0.9963531494140625,226.61875915527344,191.9363555908203,-619.4642333984375,,,,,,,,,,
0,2019-06-14 10:20:22.4300,05:13,50,0,2019-06-14 10:20:22.7440,1560522022.744306,-0.018584869667117965,0.014223144433786188,-0.01173681724008821,0.001190185546875,-0.0050506591796875,-0.99310302734375,226.68392944335938,192.38990783691406,-619.4630737304688,,,,,,,,,,
0,2019-06-14 10:20:22.4300,05:13,50,0,2019-06-14 10:20:22.7610,1560522022.760762,-0.018584869667117965,0.014223144433786188,-0.01173681724008821,0.0022735595703125,-0.0076446533203125,-1.007232666015625,226.35006713867188,192.12567138671875,-619.2318115234375,,,,,,,,,,
0,2019-06-14 10:20:22.4300,05:13,50,0,2019-06-14 10:20:22.7780,1560522022.7779841,-0.02040167816277002,0.020834441839907895,-0.012543488734273212,-0.0012969970703125,-0.005035400390625,-1.0000762939453125,226.25482177734375,192.3618927001953,-619.1162109375,,,,,,,,,,
0,2019-06-14 10:20:22.4300,05:13,50,0,2019-06-14 10:20:22.7940,1560522022.794321,-0.019380888516942647,0.01468467025069692,-0.013019395621070372,-0.0012969970703125,-0.005035400390625,-1.0000762939453125,226.4526824951172,192.23635864257812,-619.2431030273438,,,,,,,,,,
0,2019-06-14 10:20:22.4300,05:13,50,0,2019-06-14 10:20:22.8110,1560522022.81105,-0.01891643322283283,0.017970478403636685,-0.013248427474817186,0.001312255859375,-0.006805419921875,-1.0069427490234375,226.4526824951172,192.23635864257812,-619.2431030273438,,,,,,,,,,
0,2019-06-14 10:20:22.4300,05:13,50,0,2019-06-14 10:20:22.8440,1560522022.844222,-0.019201391459471306,0.014608237527411645,-0.012666260460525864,-0.0014190673828125,-0.0050048828125,-0.995697021484375,226.90725708007812,192.3760986328125,-619.33447265625,,,,,,,,,,
0,2019-06-14 10:20:22.4300,05:13,50,0,2019-06-14 10:20:22.8610,1560522022.860893,-0.019201391459471306,0.014608237527411645,-0.012666260460525864,0.00128173828125,-0.0049285888671875,-1.007415771484375,226.3303985595703,192.1544647216797,-619.2687377929688,,,,,,,,,,
0,2019-06-14 10:20:22.4300,05:13,50,0,2019-06-14 10:20:22.8780,1560522022.8779001,-0.019307651586965468,0.017123859493100493,-0.012408466467006194,0.0001220703125,-0.0070343017578125,-0.996490478515625,226.59625244140625,192.1728057861328,-619.3157958984375,,,,,,,,,,
0,2019-06-14 10:20:22.4300,05:13,50,0,2019-06-14 10:20:22.8930,1560522022.893105,-0.017793644507255423,0.015562181829878029,-0.013205017949048894,0.0001220703125,-0.0070343017578125,-0.996490478515625,226.57513427734375,192.1620635986328,-619.2943725585938,,,,,,,,,,
0,2019-06-14 10:20:22.4300,05:13,50,0,2019-06-14 10:20:22.9110,1560522022.9113,-0.017884724616536132,0.01664555576132226,-0.01194347854067836,-0.0003814697265625,-0.005401611328125,-1.0062713623046875,226.61605834960938,192.2806396484375,-619.2924194335938,,,,,,,,,,
0,2019-06-14 10:20:22.4300,05:13,50,0,2019-06-14 10:20:22.9440,1560522022.943799,-0.019002985958260405,0.01796461944923851,-0.012332832692047943,0.000732421875,-0.00732421875,-1.0023193359375,226.5908966064453,192.31619262695312,-619.469482421875,,,,,,,,,,
0,2019-06-14 10:20:22.4300,05:13,50,0,2019-06-14 10:20:22.9600,1560522022.9604769,-0.019002985958260405,0.01796461944923851,-0.012332832692047943,0.0011749267578125,-0.004302978515625,-1.0074615478515625,226.89602661132812,192.51718139648438,-619.3447265625,,,,,,,,,,
0,2019-06-14 10:20:22.4300,05:13,50,0,2019-06-14 10:20:22.9780,1560522022.977509,-0.0192280230703721,0.016580308314615322,-0.013256683274196431,0.0002288818359375,-0.00433349609375,-0.9986419677734375,226.1102752685547,192.3295440673828,-619.36865234375,,,,,,,,,,
0,2019-06-14 10:20:22.4300,05:13,50,0,2019-06-14 10:20:22.9930,1560522022.99293,-0.018903916365709456,0.01682292228992154,-0.011904862704872211,0.0002288818359375,-0.00433349609375,-0.9986419677734375,226.43524169921875,192.21441650390625,-619.25732421875,,,,,,,,,,
0,2019-06-14 10:20:22.4300,05:13,50,0,2019-06-14 10:20:23.0110,1560522023.0111032,-0.018100973297050568,0.016843694946424157,-0.012425510697982702,0.0001068115234375,-0.00518798828125,-1.007293701171875,226.47581481933594,192.0382537841797,-619.0458374023438,,,,,,,,,,
0,2019-06-14 10:20:22.4300,05:13,50,0,2019-06-14 10:20:23.0440,1560522023.043836,-0.01913161663891123,0.01703544254490986,-0.012097142935575931,0.0005035400390625,-0.0072021484375,-1.0042572021484375,226.3951873779297,192.3852081298828,-619.2313842773438,,,,,,,,,,
0,2019-06-14 10:20:22.4300,05:13,50,0,2019-06-14 10:20:23.0600,1560522023.060481,-0.01913161663891123,0.01703544254490986,-0.012097142935575931,0.0002593994140625,-0.0072174072265625,-1.0044097900390625,226.9534454345703,192.4510498046875,-619.5930786132812,,,,,,,,,,
0,2019-06-14 10:20:22.4300,05:13,50,0,2019-06-14 10:20:23.0780,1560522023.077631,-0.017608554811494915,0.015440209051952399,-0.012153601950685612,0.00042724609375,-0.0068511962890625,-1.0039215087890625,226.945068359375,192.3861083984375,-619.2390747070312,,,,,,,,,,
0,2019-06-14 10:20:22.4300,05:13,50,0,2019-06-14 10:20:23.0940,1560522023.093892,-0.0185928591503882,0.0165392956338281,-0.0116457371308075,0.00042724609375,-0.0068511962890625,-1.0039215087890625,226.22760009765625,192.24136352539062,-619.0540161132812,,,,,,,,,,
0,2019-06-14 10:20:22.4300,05:13,50,0,2019-06-14 10:20:23.1110,1560522023.110822,-0.01838646416590706,0.01608815614516868,-0.012931511305097758,0.00115966796875,-0.0048065185546875,-1.009490966796875,226.2580108642578,192.20132446289062,-619.0850830078125,,,,,,,,,,
0,2019-06-14 10:20:22.4300,05:13,50,0,2019-06-14 10:20:23.1440,1560522023.144257,-0.018548916992401895,0.017853565631782205,-0.013121394690820406,0.00164794921875,-0.006256103515625,-1.0058135986328125,226.43161010742188,192.1383514404297,-618.8776245117188,,,,,,,,,,
0,2019-06-14 10:20:22.4300,05:13,50,0,2019-06-14 10:20:23.1610,1560522023.160532,-0.018548916992401895,0.017853565631782205,-0.013121394690820406,0.0009613037109375,-0.0081024169921875,-0.998077392578125,226.23216247558594,192.2198028564453,-619.3037109375,,,,,,,,,,
0,2019-06-14 10:20:22.4300,05:13,50,0,2019-06-14 10:20:23.1780,1560522023.177607,-0.01819817867683846,0.016937438216794946,-0.012616459348141384,0.000244140625,-0.0064239501953125,-1.000396728515625,227.0677032470703,192.57325744628906,-619.5092163085938,,,,,,,,,,
0,2019-06-14 10:20:22.4300,05:13,50,0,2019-06-14 10:20:23.1940,1560522023.194092,-0.01948448548334673,0.0165291756216858,-0.011880894255061497,0.000244140625,-0.0064239501953125,-1.000396728515625,227.02166748046875,192.6653594970703,-619.3026123046875,,,,,,,,,,
0,2019-06-14 10:20:22.4300,05:13,50,0,2019-06-14 10:20:23.2110,1560522023.210753,-0.018875686858154616,0.017813618215431017,-0.013537114136981776,0.003631591796875,-0.0048980712890625,-1.0098724365234375,226.03695678710938,192.33111572265625,-619.1953125,,,,,,,,,,
0,2019-06-14 10:20:22.4300,05:13,50,0,2019-06-14 10:20:23.2440,1560522023.244004,-0.01831589039701996,0.01772733179611245,-0.012308331610019214,7.62939453125e-05,-0.0075531005859375,-1.00927734375,226.47714233398438,192.05184936523438,-619.5189819335938,,,,,,,,,,
0,2019-06-14 10:20:22.4300,05:13,50,0,2019-06-14 10:20:23.2610,1560522023.260508,-0.01831589039701996,0.01772733179611245,-0.012308331610019214,0.00067138671875,-0.0063323974609375,-1.003692626953125,226.47714233398438,192.05184936523438,-619.5189819335938,,,,,,,,,,
0,2019-06-14 10:20:22.4300,05:13,50,0,2019-06-14 10:20:23.2780,1560522023.277883,-0.01930365684533035,0.016741962192783132,-0.013784788118359145,0.0020751953125,-0.0056304931640625,-1.0009765625,226.7068634033203,192.06053161621094,-619.1990356445312,,,,,,,,,,
0,2019-06-14 10:20:22.4300,05:13,50,0,2019-06-14 10:20:23.2940,1560522023.293859,-0.019280753659955668,0.016856744435765545,-0.013108877833697035,0.0020751953125,-0.0056304931640625,-1.0009765625,227.1671142578125,192.30555725097656,-619.4480590820312,,,,,,,,,,
0,2019-06-14 10:20:22.4300,05:13,50,0,2019-06-14 10:20:23.3110,1560522023.3107429,-0.018639730785573596,0.01652757772503175,-0.011936021689626137,0.0041351318359375,-0.0062255859375,-1.005584716796875,226.92747497558594,192.45455932617188,-619.271240234375,,,,,,,,,,
0,2019-06-14 10:20:22.4300,05:13,50,0,2019-06-14 10:20:23.3440,1560522023.343816,-0.017807492944923835,0.016574981992435164,-0.013287043310623334,0.001434326171875,-0.0063934326171875,-1.00830078125,226.24978637695312,192.32594299316406,-619.1171264648438,,,,,,,,,,
0,2019-06-14 10:20:22.4300,05:13,50,0,2019-06-14 10:20:23.3610,1560522023.360629,-0.017807492944923835,0.016574981992435164,-0.013287043310623334,0.0008697509765625,-0.007293701171875,-1.005035400390625,226.6153106689453,192.3174285888672,-619.3585205078125,,,,,,,,,,
0,2019-06-14 10:20:22.4300,05:13,50,0,2019-06-14 10:20:23.3770,1560522023.3774219,-0.01753478524929972,0.015479623836085572,-0.012095012406703869,0.0011749267578125,-0.0072479248046875,-1.004669189453125,226.6153106689453,192.3174285888672,-619.3585205078125,,,,,,,,,,
0,2019-06-14 10:20:22.4300,05:13,50,0,2019-06-14 10:20:23.3940,1560522023.393865,-0.017682058057581104,0.017507088373962896,-0.012736567913303957,0.0011749267578125,-0.0072479248046875,-1.004669189453125,226.6999053955078,192.08213806152344,-619.5140991210938,,,,,,,,,,
0,2019-06-14 10:20:22.4300,05:13,50,0,2019-06-14 10:20:23.4110,1560522023.410737,-0.018942532201515604,0.015307050997448437,-0.010963168943420191,9.1552734375e-05,-0.005859375,-1.0048370361328125,226.7788543701172,192.4594268798828,-619.2827758789062,,,,,,,,,,
0,2019-06-14 10:20:22.4300,05:13,50,0,2019-06-14 10:20:23.4430,1560522023.4427881,-0.01803625848256164,0.015799203166895082,-0.012970659773121921,0.00048828125,-0.0054931640625,-1.0096282958984375,226.2106170654297,192.49984741210938,-619.28759765625,,,,,,,,,,
0,2019-06-14 10:20:22.4300,05:13,50,0,2019-06-14 10:20:23.4600,1560522023.460499,-0.01803625848256164,0.015799203166895082,-0.012970659773121921,-0.0005035400390625,-0.0054931640625,-1.0013275146484375,226.4827423095703,192.2860107421875,-619.1669311523438,,,,,,,,,,
0,2019-06-14 10:20:22.4300,05:13,50,0,2019-06-14 10:20:23.4780,1560522023.47773,-0.0190767555204556,0.01663783259416103,-0.01171391405471353,0.0012359619140625,-0.0060272216796875,-1.0045013427734375,226.13833618164062,192.21424865722656,-619.353759765625,,,,,,,,,,
0,2019-06-14 10:20:22.4300,05:13,50,0,2019-06-14 10:20:23.4940,1560522023.493906,-0.018579543344937804,0.017103086836597874,-0.01251925396835349,0.0012359619140625,-0.0060272216796875,-1.0045013427734375,226.13833618164062,192.21424865722656,-619.353759765625,,,,,,,,,,
0,2019-06-14 10:20:22.4300,05:13,50,0,2019-06-14 10:20:23.5110,1560522023.510716,-0.01816355758266743,0.015899604339991068,-0.011737616188415234,0.002288818359375,-0.0052642822265625,-1.0038604736328125,226.3670196533203,192.4011688232422,-619.3837280273438,,,,,,,,,,
0,2019-06-14 10:20:22.4300,05:13,50,0,2019-06-14 10:20:23.5440,1560522023.543817,-0.017578727407286027,0.01706660152966379,-0.01306200619851164,0.001556396484375,-0.00555419921875,-1.00469970703125,226.9799346923828,192.47872924804688,-619.3870239257812,,,,,,,,,,
0,2019-06-14 10:20:22.4300,05:13,50,0,2019-06-14 10:20:23.5610,1560522023.5605059,-0.017578727407286027,0.01706660152966379,-0.01306200619851164,0.0009918212890625,-0.007476806640625,-1.0015869140625,226.40078735351562,192.17620849609375,-619.241455078125,,,,,,,,,,
0,2019-06-14 10:20:22.4300,05:13,50,0,2019-06-14 10:20:23.5770,1560522023.577479,-0.018264491387981432,0.015622369270513818,-0.010820157192882937,-0.0013580322265625,-0.0077362060546875,-1.0064697265625,226.59754943847656,192.1127471923828,-619.3338623046875,,,,,,,,,,
0,2019-06-14 10:20:22.4300,05:13,50,0,2019-06-14 10:20:23.5940,1560522023.5940351,-0.018258632433583256,0.017248229116007194,-0.0133261917786475,-0.0013580322265625,-0.0077362060546875,-1.0064697265625,226.51734924316406,192.22715759277344,-619.3582153320312,,,,,,,,,,
0,2019-06-14 10:20:22.4300,05:13,50,0,2019-06-14 10:20:23.6110,1560522023.610756,-0.018236794512644608,0.01632011747611458,-0.013634319516769668,0.000823974609375,-0.006256103515625,-1.0048370361328125,226.51734924316406,192.22715759277344,-619.3582153320312,,,,,,,,,,
0,2019-06-14 10:20:22.4300,05:13,50,0,2019-06-14 10:20:23.6440,1560522023.643857,-0.017107880526560017,0.018227207132720323,-0.013518472009351221,-0.000946044921875,-0.0056915283203125,-1.0066680908203125,227.05648803710938,192.40586853027344,-619.4371948242188,,,,,,,,,,
0,2019-06-14 10:20:22.4300,05:13,50,0,2019-06-14 10:20:23.6610,1560522023.660688,-0.017107880526560017,0.018227207132720323,-0.013518472009351221,0.0014495849609375,-0.0063018798828125,-1.0013580322265625,227.13916015625,192.21713256835938,-619.314697265625,,,,,,,,,,
0,2019-06-14 10:20:22.4300,05:13,50,0,2019-06-14 10:20:23.6770,1560522023.677442,-0.019506057088176373,0.016235961585668077,-0.01195892487500082,0.001861572265625,-0.006805419921875,-1.0039215087890625,226.0132598876953,192.27838134765625,-619.2509765625,,,,,,,,,,
0,2019-06-14 10:20:22.4300,05:13,50,0,2019-06-14 10:20:23.6940,1560522023.693851,-0.018278073509540835,0.016234896321232043,-0.011972240680451215,0.001861572265625,-0.006805419921875,-1.0039215087890625,226.36207580566406,191.97596740722656,-619.208251953125,,,,,,,,,,
0,2019-06-14 10:20:22.4300,05:13,50,0,2019-06-14 10:20:23.7110,1560522023.7109818,-0.018344918852901824,0.016942764538975107,-0.012785570077361415,0.001251220703125,-0.0053863525390625,-1.0034332275390625,226.7396697998047,191.9982147216797,-619.3233642578125,,,,,,,,,,
0,2019-06-14 10:20:22.4300,05:13,50,0,2019-06-14 10:20:23.7430,1560522023.743075,-0.017698569656339595,0.01557496500311041,-0.01293257656953379,0.002197265625,-0.006011962890625,-1.0065460205078125,226.3846435546875,192.10789489746094,-619.3814697265625,,,,,,,,,,
0,2019-06-14 10:20:22.4300,05:13,50,0,2019-06-14 10:20:23.7600,1560522023.759821,-0.017698569656339595,0.01557496500311041,-0.01293257656953379,0.0001678466796875,-0.009033203125,-1.006744384765625,225.2394256591797,192.19467163085938,-619.1077880859375,,,,,,,,,,
0,2019-06-14 10:20:22.4300,05:13,50,0,2019-06-14 10:20:23.7780,1560522023.777855,-0.019878367008569448,0.017166203754432754,-0.012340822175318181,0.00140380859375,-0.0059967041015625,-1.004730224609375,227.04510498046875,192.42515563964844,-619.317138671875,,,,,,,,,,
0,2019-06-14 10:20:22.4300,05:13,50,0,2019-06-14 10:20:23.7950,1560522023.794832,-0.01873160984318133,0.01634195539705323,-0.012956278703235494,0.001434326171875,-0.006011962890625,-1.0010528564453125,226.30633544921875,192.24658203125,-619.3399658203125,,,,,,,,,,
0,2019-06-14 10:20:22.4300,05:13,50,0,2019-06-14 10:20:23.8110,1560522023.811064,-0.017049024666469268,0.01606578559201201,-0.013384248690411228,0.001434326171875,-0.006011962890625,-1.0010528564453125,226.02618408203125,192.2028350830078,-619.386474609375,,,,,,,,,,
0,2019-06-14 10:20:22.4300,05:13,50,0,2019-06-14 10:20:23.8440,1560522023.844359,-0.01933934320393741,0.015352324735979785,-0.011957326978346772,0.001373291015625,-0.006195068359375,-1.005340576171875,226.19227600097656,192.20849609375,-619.45947265625,,,,,,,,,,
0,2019-06-14 10:20:22.4300,05:13,50,0,2019-06-14 10:20:23.8610,1560522023.8605509,-0.01933934320393741,0.015352324735979785,-0.011957326978346772,6.103515625e-05,-0.0052337646484375,-1.0059814453125,226.80691528320312,191.957275390625,-619.38330078125,,,,,,,,,,
0,2019-06-14 10:20:22.4300,05:13,50,0,2019-06-14 10:20:23.8770,1560522023.8774838,-0.017758490780866377,0.017030116222729704,-0.01264122674627912,-0.0002288818359375,-0.0057830810546875,-1.0045013427734375,226.97727966308594,192.2799530029297,-619.452392578125,,,,,,,,,,
0,2019-06-14 10:20:22.4300,05:13,50,0,2019-06-14 10:20:23.8940,1560522023.893594,-0.018001104756172594,0.018054900610192194,-0.013101420982644812,-0.0002288818359375,-0.0057830810546875,-1.0045013427734375,227.2521209716797,192.21890258789062,-619.2659301757812,,,,,,,,,,
0,2019-06-14 10:20:22.4300,05:13,50,0,2019-06-14 10:20:23.9110,1560522023.910975,-0.01902908493694318,0.01725675123149545,-0.011750399361647615,0.00177001953125,-0.006591796875,-1.003143310546875,226.57058715820312,192.1034698486328,-619.1328125,,,,,,,,,,
0,2019-06-14 10:20:22.4300,05:13,50,0,2019-06-14 10:20:23.9440,1560522023.94414,-0.018024007941547276,0.017185378514281324,-0.012194081999254815,0.0002593994140625,-0.0069427490234375,-1.002471923828125,226.2342071533203,192.0479278564453,-619.1075439453125,,,,,,,,,,
0,2019-06-14 10:20:22.4300,05:13,50,0,2019-06-14 10:20:23.9600,1560522023.9604502,-0.018024007941547276,0.017185378514281324,-0.012194081999254815,0.002777099609375,-0.007415771484375,-1.0082855224609375,226.2342071533203,192.0479278564453,-619.1075439453125,,,,,,,,,,
0,2019-06-14 10:20:22.4300,05:13,50,0,2019-06-14 10:20:23.9780,1560522023.977624,-0.017232782781684733,0.01688950131717352,-0.013087306228867392,0.0013275146484375,-0.007080078125,-1.0048828125,226.57247924804688,192.11965942382812,-619.4573364257812,,,,,,,,,,
0,2019-06-14 10:20:22.4300,05:13,50,0,2019-06-14 10:20:23.9940,1560522023.99389,-0.019013105970402705,0.015645805088106517,-0.01337253078161488,0.0013275146484375,-0.007080078125,-1.0048828125,226.95594787597656,192.1785125732422,-619.4406127929688,,,,,,,,,,
0,2019-06-14 10:20:22.4300,05:13,50,0,2019-06-14 10:20:24.0110,1560522024.0107322,-0.01760029901211567,0.016986174064743398,-0.012297678965658898,0.0013427734375,-0.00482177734375,-1.0072174072265625,226.89651489257812,192.2486114501953,-619.3582763671875,,,,,,,,,,
0,2019-06-14 10:20:22.4300,05:13,50,0,2019-06-14 10:20:24.0440,1560522024.0440512,-0.01767353594209285,0.016243418436720298,-0.013374394994377934,0.001861572265625,-0.0070037841796875,-1.001068115234375,226.01504516601562,192.0305938720703,-619.2849731445312,,,,,,,,,,
0,2019-06-14 10:20:22.4300,05:13,50,0,2019-06-14 10:20:24.0610,1560522024.060865,-0.01767353594209285,0.016243418436720298,-0.013374394994377934,-0.0008392333984375,-0.0049285888671875,-1.005279541015625,226.45228576660156,192.15980529785156,-619.4331665039062,,,,,,,,,,
0,2019-06-14 10:20:22.4300,05:13,50,0,2019-06-14 10:20:24.0780,1560522024.077609,-0.017912687807981963,0.015654593519703778,-0.0122473452210564,0.00067138671875,-0.006103515625,-1.001373291015625,226.45228576660156,192.15980529785156,-619.4331665039062,,,,,,,,,,
0,2019-06-14 10:20:22.4300,05:13,50,0,2019-06-14 10:20:24.0940,1560522024.093937,-0.01842268315673214,0.016239690011194186,-0.013191968459707507,0.00067138671875,-0.006103515625,-1.001373291015625,226.3954315185547,192.01446533203125,-619.258056640625,,,,,,,,,,
0,2019-06-14 10:20:22.4300,05:13,50,0,2019-06-14 10:20:24.1110,1560522024.110831,-0.018410432615717773,0.01630973114786327,-0.011986355434228635,-0.000244140625,-0.0064849853515625,-1.0062255859375,226.75616455078125,192.36849975585938,-619.2970581054688,,,,,,,,,,
0,2019-06-14 10:20:22.4300,05:13,50,0,2019-06-14 10:20:24.1430,1560522024.142844,-0.0173526250307383,0.016953949815553437,-0.01261805724479543,0.0015869140625,-0.0054473876953125,-1.005401611328125,226.7592315673828,192.1625518798828,-619.5401000976562,,,,,,,,,,
0,2019-06-14 10:20:22.4300,05:13,50,0,2019-06-14 10:20:24.1610,1560522024.160531,-0.0173526250307383,0.016953949815553437,-0.01261805724479543,0.0005340576171875,-0.0088348388671875,-1.0065155029296875,226.33575439453125,192.0452880859375,-619.28125,,,,,,,,,,
0,2019-06-14 10:20:22.4300,05:13,50,0,2019-06-14 10:20:24.1780,1560522024.177621,-0.017972875248617754,0.015672703015116318,-0.013559751006247449,0.0009765625,-0.0047607421875,-1.00006103515625,226.08592224121094,192.3858642578125,-619.4213256835938,,,,,,,,,,
0,2019-06-14 10:20:22.4300,05:13,50,0,2019-06-14 10:20:24.1940,1560522024.193898,-0.018409101035172733,0.018055433242410213,-0.012657738345037611,0.0009765625,-0.0047607421875,-1.00006103515625,226.08592224121094,192.3858642578125,-619.4213256835938,,,,,,,,,,
0,2019-06-14 10:20:22.4300,05:13,50,0,2019-06-14 10:20:24.2110,1560522024.210804,-0.018022942677111246,0.01696140666660566,-0.013104883092061915,0.0022125244140625,-0.0058746337890625,-1.00579833984375,226.46653747558594,192.40284729003906,-619.0869140625,,,,,,,,,,
0,2019-06-14 10:20:22.4300,05:13,50,0,2019-06-14 10:20:24.2440,1560522024.2440128,-0.018691396110721133,0.015231150906381179,-0.013080115693924178,0.001800537109375,-0.0045928955078125,-1.0031585693359375,226.6592254638672,192.37551879882812,-619.3133544921875,,,,,,,,,,
0,2019-06-14 10:20:22.4300,05:13,50,0,2019-06-14 10:20:24.2610,1560522024.2607222,-0.018691396110721133,0.015231150906381179,-0.013080115693924178,0.00140380859375,-0.0072784423828125,-1.006622314453125,226.1143798828125,192.40890502929688,-619.392822265625,,,,,,,,,,
0,2019-06-14 10:20:22.4300,05:13,50,0,2019-06-14 10:20:24.2770,1560522024.2774239,-0.016800551736764875,0.015736352565169212,-0.011982627008702524,0.0007781982421875,-0.007110595703125,-1.0026702880859375,226.38941955566406,192.10096740722656,-619.2940673828125,,,,,,,,,,
0,2019-06-14 10:20:22.4300,05:13,50,0,2019-06-14 10:20:24.2940,1560522024.294064,-0.01892016164835894,0.017974206829162793,-0.0120859576589976,0.0007781982421875,-0.007110595703125,-1.0026702880859375,225.9990234375,192.09091186523438,-619.4476928710938,,,,,,,,,,
0,2019-06-14 10:20:22.4300,05:13,50,0,2019-06-14 10:20:24.3110,1560522024.310925,-0.019604594048509304,0.01717579113435704,-0.011823369975515786,0.0011138916015625,-0.006317138671875,-1.005157470703125,225.9990234375,192.09091186523438,-619.4476928710938,,,,,,,,,,
0,2019-06-14 10:20:22.4300,05:13,50,0,2019-06-14 10:20:24.3440,1560522024.3440409,-0.018464494785846382,0.016795491730693723,-0.013677995358646968,0.0002593994140625,-0.0066680908203125,-1.0011444091796875,226.85076904296875,192.42532348632812,-619.4000244140625,,,,,,,,,,
0,2019-06-14 10:20:22.4300,05:13,50,0,2019-06-14 10:20:24.3610,1560522024.360712,-0.018464494785846382,0.016795491730693723,-0.013677995358646968,0.000946044921875,-0.006103515625,-1.0061492919921875,227.29222106933594,192.23890686035156,-619.1636962890625,,,,,,,,,,
0,2019-06-14 10:20:22.4300,05:13,50,0,2019-06-14 10:20:24.3780,1560522024.377666,-0.017685253850889197,0.01647511345155719,-0.012446017038376311,-0.000152587890625,-0.0061187744140625,-1.0042877197265625,226.07298278808594,192.19284057617188,-619.0347900390625,,,,,,,,,,
0,2019-06-14 10:20:22.4300,05:13,50,0,2019-06-14 10:20:24.3940,1560522024.393858,-0.018148643880562986,0.016534768259974967,-0.013320599140358333,-0.000152587890625,-0.0061187744140625,-1.0042877197265625,226.00396728515625,192.03372192382812,-619.1742553710938,,,,,,,,,,
0,2019-06-14 10:20:22.4300,05:13,50,0,2019-06-14 10:20:24.4110,1560522024.4109468,-0.018572086493885583,0.01682798229599269,-0.013227921134423577,0.000396728515625,-0.0056304931640625,-1.0077362060546875,226.25540161132812,192.3216094970703,-619.2964477539062,,,,,,,,,,
0,2019-06-14 10:20:22.4300,05:13,50,0,2019-06-14 10:20:24.4440,1560522024.443832,-0.018392323120305233,0.015655392468030802,-0.01341594030738317,0.0016632080078125,-0.006134033203125,-0.999969482421875,226.28286743164062,191.99856567382812,-619.3939208984375,,,,,,,,,,
0,2019-06-14 10:20:22.4300,05:13,50,0,2019-06-14 10:20:24.4610,1560522024.461011,-0.018392323120305233,0.015655392468030802,-0.01341594030738317,0.001251220703125,-0.0071563720703125,-1.005889892578125,227.1702423095703,192.3744354248047,-619.7044067382812,,,,,,,,,,
0,2019-06-14 10:20:22.4300,05:13,50,0,2019-06-14 10:20:24.4780,1560522024.477684,-0.018203504999018617,0.017352891346847307,-0.013176255809276038,0.0006103515625,-0.0062713623046875,-1.005523681640625,226.37416076660156,192.43341064453125,-619.278076171875,,,,,,,,,,
0,2019-06-14 10:20:22.4300,05:13,50,0,2019-06-14 10:20:24.4940,1560522024.4939098,-0.01830736828153171,0.017109744739323075,-0.012250807330473503,0.0006103515625,-0.0062713623046875,-1.005523681640625,225.9143829345703,192.17449951171875,-619.1223754882812,,,,,,,,,,
0,2019-06-14 10:20:22.4300,05:13,50,0,2019-06-14 10:20:24.5110,1560522024.510669,-0.018357702026134206,0.0170668678457728,-0.012516590807263412,-0.0001373291015625,-0.0046844482421875,-1.0068206787109375,226.45860290527344,192.0454864501953,-619.4534912109375,,,,,,,,,,
0,2019-06-14 10:20:22.4300,05:13,50,0,2019-06-14 10:20:24.5440,1560522024.544057,-0.01887036053597446,0.017036241493236886,-0.012603676174909003,0.0013275146484375,-0.0089111328125,-1.0029754638671875,226.5430450439453,192.11398315429688,-619.6025390625,,,,,,,,,,
0,2019-06-14 10:20:22.4300,05:13,50,0,2019-06-14 10:20:24.5610,1560522024.56055,-0.01887036053597446,0.017036241493236886,-0.012603676174909003,0.00177001953125,-0.0067596435546875,-1.004486083984375,226.30889892578125,192.2113494873047,-619.3748779296875,,,,,,,,,,
0,2019-06-14 10:20:22.4300,05:13,50,0,2019-06-14 10:20:24.5770,1560522024.5774999,-0.01786954459832268,0.015398397422838155,-0.01348544881183424,0.0020751953125,-0.0060272216796875,-1.0001983642578125,227.21026611328125,192.40994262695312,-619.5987548828125,,,,,,,,,,
0,2019-06-14 10:20:22.4300,05:13,50,0,2019-06-14 10:20:24.5940,1560522024.593937,-0.017568607395143727,0.016670855791678017,-0.013066267256255766,0.0020751953125,-0.0060272216796875,-1.0001983642578125,226.10311889648438,192.47410583496094,-619.5833129882812,,,,,,,,,,
0,2019-06-14 10:20:22.4300,05:13,50,0,2019-06-14 10:20:24.6110,1560522024.610884,-0.018534535922515465,0.016641294703578134,-0.012003133349096135,0.001556396484375,-0.005035400390625,-1.0098419189453125,226.432861328125,192.26260375976562,-619.2461547851562,,,,,,,,,,
0,2019-06-14 10:20:22.4300,05:13,50,0,2019-06-14 10:20:24.6430,1560522024.64284,-0.01941018328893352,0.015754994692799767,-0.013454023510971304,0.0011444091796875,-0.0056304931640625,-1.0032806396484375,226.60687255859375,192.0723114013672,-619.0223999023438,,,,,,,,,,
0,2019-06-14 10:20:22.4300,05:13,50,0,2019-06-14 10:20:24.6610,1560522024.6606011,-0.01941018328893352,0.015754994692799767,-0.013454023510971304,0.0004119873046875,-0.0081787109375,-1.0068206787109375,226.5381622314453,192.11572265625,-619.24609375,,,,,,,,,,
0,2019-06-14 10:20:22.4300,05:13,50,0,2019-06-14 10:20:24.6780,1560522024.677736,-0.01823279977100949,0.016359265944138744,-0.01290541232641498,0.00103759765625,-0.007476806640625,-1.0014801025390625,226.43309020996094,192.23260498046875,-619.453125,,,,,,,,,,
0,2019-06-14 10:20:22.4300,05:13,50,0,2019-06-14 10:20:24.6940,1560522024.6939259,-0.017852500367346175,0.015756592589453812,-0.013104616775952907,0.00103759765625,-0.007476806640625,-1.0014801025390625,227.16299438476562,192.51235961914062,-619.5010986328125,,,,,,,,,,
0,2019-06-14 10:20:22.4300,05:13,50,0,2019-06-14 10:20:24.7110,1560522024.710841,-0.016846358107514236,0.015868179039128134,-0.012279835786355367,0.00250244140625,-0.0069427490234375,-1.0067138671875,226.30409240722656,192.41432189941406,-619.464111328125,,,,,,,,,,
0,2019-06-14 10:20:22.4300,05:13,50,0,2019-06-14 10:20:24.7440,1560522024.744331,-0.01854438961854876,0.0168820444661213,-0.013156282101100444,0.0006256103515625,-0.006500244140625,-1.001373291015625,226.24789428710938,192.11923217773438,-619.2969970703125,,,,,,,,,,
0,2019-06-14 10:20:22.4300,05:13,50,0,2019-06-14 10:20:24.7610,1560522024.7607641,-0.01854438961854876,0.0168820444661213,-0.013156282101100444,0.00201416015625,-0.0072784423828125,-1.0045318603515625,226.80465698242188,192.42141723632812,-619.2559204101562,,,,,,,,,,
0,2019-06-14 10:20:22.4300,05:13,50,0,2019-06-14 10:20:24.7770,1560522024.777437,-0.01791828044627113,0.01629827955517593,-0.011970909099906175,0.0027008056640625,-0.0075836181640625,-1.00396728515625,226.80465698242188,192.42141723632812,-619.2559204101562,,,,,,,,,,
0,2019-06-14 10:20:22.4300,05:13,50,0,2019-06-14 10:20:24.7940,1560522024.7938662,-0.01833506515686853,0.017336912380306834,-0.012631639366354835,0.0027008056640625,-0.0075836181640625,-1.00396728515625,226.70639038085938,192.26370239257812,-619.4264526367188,,,,,,,,,,
0,2019-06-14 10:20:22.4300,05:13,50,0,2019-06-14 10:20:24.8110,1560522024.8107061,-0.0166636652567348,0.015373896340809426,-0.012585034047278449,0.000823974609375,-0.008026123046875,-1.0063934326171875,227.50772094726562,192.32225036621094,-619.3824462890625,,,,,,,,,,
0,2019-06-14 10:20:22.4300,05:13,50,0,2019-06-14 10:20:24.8440,1560522024.844349,-0.019483952851128715,0.01649482084362378,-0.013759488088003391,0.0006256103515625,-0.0074310302734375,-1.0020599365234375,226.55125427246094,192.17405700683594,-619.322509765625,,,,,,,,,,
0,2019-06-14 10:20:22.4300,05:13,50,0,2019-06-14 10:20:24.8610,1560522024.8606,-0.019483952851128715,0.01649482084362378,-0.013759488088003391,0.0003509521484375,-0.006500244140625,-1.0028533935546875,226.46788024902344,192.2099151611328,-619.2294311523438,,,,,,,,,,
0,2019-06-14 10:20:22.4300,05:13,50,0,2019-06-14 10:20:24.8780,1560522024.877815,-0.018318287242001033,0.016351542776977514,-0.013293168581130518,0.001129150390625,-0.003875732421875,-1.001678466796875,226.3914337158203,192.29598999023438,-619.2547607421875,,,,,,,,,,
0,2019-06-14 10:20:22.4300,05:13,50,0,2019-06-14 10:20:24.8940,1560522024.893931,-0.016669257895023968,0.016462063962215803,-0.013183180028110244,0.001129150390625,-0.003875732421875,-1.001678466796875,226.3914337158203,192.29598999023438,-619.2547607421875,,,,,,,,,,
0,2019-06-14 10:20:22.4300,05:13,50,0,2019-06-14 10:20:24.9110,1560522024.910843,-0.01765010012450015,0.017386180860473298,-0.013576528921114949,0.0023956298828125,-0.0047607421875,-1.0049591064453125,226.37303161621094,192.1596221923828,-619.33251953125,,,,,,,,,,
0,2019-06-14 10:20:22.4300,05:13,50,0,2019-06-14 10:20:24.9440,1560522024.943923,-0.017762219206392486,0.017318536568785285,-0.013509417261644951,0.00372314453125,-0.005645751953125,-1.0043487548828125,226.28916931152344,192.3892059326172,-619.3505249023438,,,,,,,,,,
0,2019-06-14 10:20:22.4300,05:13,50,0,2019-06-14 10:20:24.9610,1560522024.960551,-0.017762219206392486,0.017318536568785285,-0.013509417261644951,0.0008697509765625,-0.00701904296875,-0.9996490478515625,226.40911865234375,191.9982147216797,-619.2532958984375,,,,,,,,,,
0,2019-06-14 10:20:22.4300,05:13,50,0,2019-06-14 10:20:24.9780,1560522024.9777699,-0.019796341646995008,0.01679948647232884,-0.013333382313590714,0.0010528564453125,-0.007171630859375,-1.005279541015625,226.60606384277344,192.28009033203125,-619.5274658203125,,,,,,,,,,
0,2019-06-14 10:20:22.4300,05:13,50,0,2019-06-14 10:20:24.9940,1560522024.9942431,-0.018034394269798585,0.0164854997798085,-0.013430321377269598,0.0010528564453125,-0.007171630859375,-1.005279541015625,226.5839385986328,192.36741638183594,-619.4693603515625,,,,,,,,,,
0,2019-06-14 10:20:22.4300,05:13,50,0,2019-06-14 10:20:25.0110,1560522025.0108762,-0.017348630289103183,0.016725716910133647,-0.012950952381055335,0.000518798828125,-0.0081024169921875,-1.0016326904296875,226.5839385986328,192.36741638183594,-619.4693603515625,,,,,,,,,,
0,2019-06-14 10:20:22.4300,05:13,50,0,2019-06-14 10:20:25.0440,1560522025.0442,-0.016752614837143447,0.016683372648801386,-0.011828696297695944,0.0003662109375,-0.0055694580078125,-1.0029296875,227.2446746826172,192.3671875,-619.57958984375,,,,,,,,,,
0,2019-06-14 10:20:22.4300,05:13,50,0,2019-06-14 10:20:25.0610,1560522025.06069,-0.016752614837143447,0.016683372648801386,-0.011828696297695944,0.0007171630859375,-0.00860595703125,-1.0001373291015625,227.01095581054688,192.0299072265625,-619.3196411132812,,,,,,,,,,
0,2019-06-14 10:20:22.4300,05:13,50,0,2019-06-14 10:20:25.0770,1560522025.07742,-0.018305237752659645,0.017008278301791056,-0.012104599786628154,0.0,-0.0071868896484375,-1.00653076171875,226.74786376953125,192.16708374023438,-619.5042724609375,,,,,,,,,,
0,2019-06-14 10:20:22.4300,05:13,50,0,2019-06-14 10:20:25.0940,1560522025.094325,-0.017894844628678432,0.015467373295071208,-0.012442022296741193,0.0,-0.0071868896484375,-1.00653076171875,226.6849822998047,191.88262939453125,-619.196044921875,,,,,,,,,,
0,2019-06-14 10:20:22.4300,05:13,50,0,2019-06-14 10:20:25.1110,1560522025.110965,-0.018503909569979556,0.0162570005582797,-0.012435098077906987,0.0012969970703125,-0.0059661865234375,-1.0059967041015625,226.4891815185547,191.92066955566406,-619.301513671875,,,,,,,,,,
0,2019-06-14 10:20:22.4300,05:13,50,0,2019-06-14 10:20:25.1440,1560522025.143982,-0.018634937095611454,0.014957644262430042,-0.010825483515063095,-0.0004730224609375,-0.005401611328125,-1.004425048828125,227.1027374267578,192.12042236328125,-619.3404541015625,,,,,,,,,,
0,2019-06-14 10:20:22.4300,05:13,50,0,2019-06-14 10:20:25.1610,1560522025.160612,-0.018634937095611454,0.014957644262430042,-0.010825483515063095,0.00274658203125,-0.0069580078125,-1.0011749267578125,227.3166961669922,192.39002990722656,-619.6607055664062,,,,,,,,,,
0,2019-06-14 10:20:22.4300,05:13,50,0,2019-06-14 10:20:25.1780,1560522025.177702,-0.01877608463338565,0.016111858278870385,-0.012938435523931964,0.0027618408203125,-0.0060882568359375,-1.00494384765625,226.07994079589844,192.1382598876953,-619.2439575195312,,,,,,,,,,
0,2019-06-14 10:20:22.4300,05:13,50,0,2019-06-14 10:20:25.1940,1560522025.1940532,-0.018647720268843832,0.015252189878992805,-0.01169846772039107,0.0027618408203125,-0.0060882568359375,-1.00494384765625,226.129638671875,192.11883544921875,-619.4585571289062,,,,,,,,,,
0,2019-06-14 10:20:22.4300,05:13,50,0,2019-06-14 10:20:25.2110,1560522025.210835,-0.016574981992435164,0.016608005189952146,-0.013577860501659988,0.0020294189453125,-0.0058441162109375,-1.003387451171875,226.28114318847656,192.23391723632812,-619.4738159179688,,,,,,,,,,
0,2019-06-14 10:20:22.4300,05:13,50,0,2019-06-14 10:20:25.2440,1560522025.244008,-0.018025339522092315,0.01703198043549276,-0.012331767427611913,0.0002593994140625,-0.0072479248046875,-1.0058441162109375,226.399169921875,192.16668701171875,-619.3263549804688,,,,,,,,,,
0,2019-06-14 10:20:22.4300,05:13,50,0,2019-06-14 10:20:25.2600,1560522025.259644,-0.018025339522092315,0.01703198043549276,-0.012331767427611913,-0.0017852783203125,-0.0063629150390625,-1.003875732421875,227.28724670410156,192.33602905273438,-619.81689453125,,,,,,,,,,
0,2019-06-14 10:20:22.4300,05:13,50,0,2019-06-14 10:20:25.2770,1560522025.277413,-0.018781677271674818,0.016385098606712514,-0.011795140467960945,0.0027618408203125,-0.0066375732421875,-1.0043182373046875,227.2178192138672,192.37696838378906,-619.7393188476562,,,,,,,,,,
0,2019-06-14 10:20:22.4300,05:13,50,0,2019-06-14 10:20:25.2940,1560522025.2939858,-0.017358483985136473,0.01658323779181441,-0.012907809171396051,0.0027618408203125,-0.0066375732421875,-1.0043182373046875,226.04803466796875,191.96978759765625,-619.2742919921875,,,,,,,,,,
0,2019-06-14 10:20:22.4300,05:13,50,0,2019-06-14 10:20:25.3110,1560522025.31088,-0.018904182681818465,0.01652784404114076,-0.012954680806581447,0.000152587890625,-0.0071563720703125,-1.003387451171875,226.415283203125,192.14752197265625,-619.5037231445312,,,,,,,,,,
0,2019-06-14 10:20:22.4300,05:13,50,0,2019-06-14 10:20:25.3440,1560522025.344455,-0.01840963366739075,0.016665795785606865,-0.012339224278664135,0.002044677734375,-0.0062255859375,-1.0049285888671875,226.53717041015625,192.09181213378906,-619.489013671875,,,,,,,,,,
0,2019-06-14 10:20:22.4300,05:13,50,0,2019-06-14 10:20:25.3610,1560522025.360629,-0.01840963366739075,0.016665795785606865,-0.012339224278664135,0.0025482177734375,-0.0054168701171875,-1.0066375732421875,226.53717041015625,192.09181213378906,-619.489013671875,,,,,,,,,,
0,2019-06-14 10:20:22.4300,05:13,50,0,2019-06-14 10:20:25.3780,1560522025.3776731,-0.018202706050691592,0.01790416569249371,-0.01234242007197223,4.57763671875e-05,-0.0049285888671875,-1.003326416015625,227.19189453125,192.41014099121094,-619.4266357421875,,,,,,,,,,
0,2019-06-14 10:20:22.4300,05:13,50,0,2019-06-14 10:20:25.3930,1560522025.3930302,-0.019315108438017693,0.01601598447962753,-0.011959457507218834,4.57763671875e-05,-0.0049285888671875,-1.003326416015625,227.03414916992188,192.29054260253906,-619.4984741210938,,,,,,,,,,
0,2019-06-14 10:20:22.4300,05:13,50,0,2019-06-14 10:20:25.4110,1560522025.410918,-0.019289275775443922,0.017196830106968666,-0.013248960107035202,0.0001983642578125,-0.007598876953125,-1.0004119873046875,226.26693725585938,192.0332794189453,-619.4940185546875,,,,,,,,,,
0,2019-06-14 10:20:22.4300,05:13,50,0,2019-06-14 10:20:25.4440,1560522025.444289,-0.01863040972175832,0.01715342058120037,-0.013541108878616894,0.00048828125,-0.006683349609375,-1.002532958984375,226.46482849121094,192.21209716796875,-619.266845703125,,,,,,,,,,
0,2019-06-14 10:20:22.4300,05:13,50,0,2019-06-14 10:20:25.4610,1560522025.4606729,-0.01863040972175832,0.01715342058120037,-0.013541108878616894,0.0014190673828125,-0.0067901611328125,-1.0040435791015625,226.46482849121094,192.21209716796875,-619.266845703125,,,,,,,,,,
0,2019-06-14 10:20:22.4300,05:13,50,0,2019-06-14 10:20:25.4770,1560522025.477479,-0.018917232171159853,0.01824531662813286,-0.012194614631472832,0.0014801025390625,-0.005767822265625,-1.003509521484375,226.4728240966797,192.26473999023438,-619.0311279296875,,,,,,,,,,
0,2019-06-14 10:20:22.4300,05:13,50,0,2019-06-14 10:20:25.4940,1560522025.493998,-0.01922003358710186,0.016477510296538263,-0.012380503275560362,0.0014801025390625,-0.005767822265625,-1.003509521484375,227.161376953125,192.38525390625,-619.5485229492188,,,,,,,,,,
0,2019-06-14 10:20:22.4300,05:13,50,0,2019-06-14 10:20:25.5110,1560522025.510981,-0.017820276118156213,0.017192835365333545,-0.013201555839631791,0.0008087158203125,-0.0041961669921875,-1.00390625,227.26576232910156,192.25331115722656,-619.7061157226562,,,,,,,,,,
0,2019-06-14 10:20:22.4300,05:13,50,0,2019-06-14 10:20:25.5440,1560522025.543952,-0.019229620967026146,0.0170636720524647,-0.013553093103522252,0.0027008056640625,-0.0097503662109375,-1.0047149658203125,226.69427490234375,192.14535522460938,-619.3453369140625,,,,,,,,,,
0,2019-06-14 10:20:22.4300,05:13,50,0,2019-06-14 10:20:25.5610,1560522025.560749,-0.019229620967026146,0.0170636720524647,-0.013553093103522252,-0.00103759765625,-0.0065765380859375,-1.007904052734375,226.40879821777344,192.11505126953125,-619.3432006835938,,,,,,,,,,
0,2019-06-14 10:20:22.4300,05:13,50,0,2019-06-14 10:20:25.5780,1560522025.577667,-0.0165728514635631,0.017968880506982636,-0.012786369025688438,0.0007781982421875,-0.0065155029296875,-1.0024261474609375,226.40879821777344,192.11505126953125,-619.3432006835938,,,,,,,,,,
0,2019-06-14 10:20:22.4300,05:13,50,0,2019-06-14 10:20:25.5940,1560522025.5939898,-0.01804557954637692,0.017250625960988267,-0.012135226139164065,0.0007781982421875,-0.0065155029296875,-1.0024261474609375,226.4626922607422,192.2697296142578,-619.534912109375,,,,,,,,,,
0,2019-06-14 10:20:22.4300,05:13,50,0,2019-06-14 10:20:25.6110,1560522025.6109529,-0.018428009478912297,0.017679128580382016,-0.012643889907369199,0.001739501953125,-0.0061492919921875,-1.0029144287109375,226.9505615234375,191.9955596923828,-619.5681762695312,,,,,,,,,,
0,2019-06-14 10:20:22.4300,05:13,50,0,2019-06-14 10:20:25.6430,1560522025.6433702,-0.019545471872309546,0.01711933211924736,-0.013966948336920564,0.0018463134765625,-0.004119873046875,-1.00421142578125,226.0214385986328,191.87115478515625,-619.1747436523438,,,,,,,,,,
0,2019-06-14 10:20:22.4300,05:13,50,0,2019-06-14 10:20:25.6610,1560522025.660664,-0.019545471872309546,0.01711933211924736,-0.013966948336920564,0.0005645751953125,-0.0057373046875,-1.0041351318359375,226.44906616210938,192.01699829101562,-619.2151489257812,,,,,,,,,,
0,2019-06-14 10:20:22.4300,05:13,50,0,2019-06-14 10:20:25.6780,1560522025.6779141,-0.017296698647846637,0.016642892600232183,-0.011961588036090898,0.0018463134765625,-0.0069122314453125,-1.00360107421875,226.70114135742188,191.98036193847656,-619.192138671875,,,,,,,,,,
0,2019-06-14 10:20:22.4300,05:13,50,0,2019-06-14 10:20:25.6940,1560522025.69401,-0.01891483532617878,0.016644756812995237,-0.013466540368094675,0.0018463134765625,-0.0069122314453125,-1.00360107421875,226.70114135742188,191.98036193847656,-619.192138671875,,,,,,,,,,
0,2019-06-14 10:20:22.4300,05:13,50,0,2019-06-14 10:20:25.7110,1560522025.710762,-0.01864798658495284,0.016642359968014168,-0.011748801464993568,0.001678466796875,-0.006103515625,-1.0027313232421875,226.85098266601562,192.19960021972656,-619.2447509765625,,,,,,,,,,
0,2019-06-14 10:20:22.4300,05:13,50,0,2019-06-14 10:20:25.7440,1560522025.7439299,-0.019621371963376804,0.01721680381514426,-0.011404987368264338,-0.000396728515625,-0.007049560546875,-1.0041961669921875,227.12310791015625,192.12074279785156,-619.659423828125,,,,,,,,,,
0,2019-06-14 10:20:22.4300,05:13,50,0,2019-06-14 10:20:25.7610,1560522025.760711,-0.019621371963376804,0.01721680381514426,-0.011404987368264338,-0.00054931640625,-0.007171630859375,-1.005706787109375,226.7168731689453,191.94541931152344,-619.2342529296875,,,,,,,,,,
0,2019-06-14 10:20:22.4300,05:13,50,0,2019-06-14 10:20:25.7770,1560522025.7774591,-0.01799657738231946,0.01642398075862767,-0.013664413237087563,0.001861572265625,-0.004852294921875,-1.00238037109375,226.8570556640625,192.21630859375,-619.2506103515625,,,,,,,,,,
0,2019-06-14 10:20:22.4300,05:13,50,0,2019-06-14 10:20:25.7940,1560522025.794179,-0.017980864731887994,0.01604927399325352,-0.013255351693651392,0.001861572265625,-0.004852294921875,-1.00238037109375,226.35316467285156,192.05709838867188,-619.3416748046875,,,,,,,,,,
0,2019-06-14 10:20:22.4300,05:13,50,0,2019-06-14 10:20:25.8110,1560522025.810834,-0.019236278869751346,0.016732374812858844,-0.013455887723734359,0.0014801025390625,-0.0059051513671875,-1.002532958984375,226.35316467285156,192.05709838867188,-619.3416748046875,,,,,,,,,,
0,2019-06-14 10:20:22.4300,05:13,50,0,2019-06-14 10:20:25.8440,1560522025.844051,-0.01799151737624831,0.016470586077704057,-0.012463860217679843,0.00140380859375,-0.00543212890625,-1.00433349609375,227.06484985351562,192.1244659423828,-619.63037109375,,,,,,,,,,
0,2019-06-14 10:20:22.4300,05:13,50,0,2019-06-14 10:20:25.8610,1560522025.860903,-0.01799151737624831,0.016470586077704057,-0.012463860217679843,0.00146484375,-0.0047760009765625,-1.0031585693359375,227.1701202392578,192.22848510742188,-619.7263793945312,,,,,,,,,,
0,2019-06-14 10:20:22.4300,05:13,50,0,2019-06-14 10:20:25.8780,1560522025.877557,-0.018326809357489284,0.016882310782230306,-0.012481170764765358,0.00079345703125,-0.0054779052734375,-1.005950927734375,226.21522521972656,191.970947265625,-619.0546875,,,,,,,,,,
0,2019-06-14 10:20:22.4300,05:13,50,0,2019-06-14 10:20:25.8930,1560522025.8932219,-0.01927649260221154,0.016733440077294878,-0.013543239407488958,0.00079345703125,-0.0054779052734375,-1.005950927734375,226.47378540039062,192.0435333251953,-619.1285400390625,,,,,,,,,,
0,2019-06-14 10:20:22.4300,05:13,50,0,2019-06-14 10:20:25.9110,1560522025.911077,-0.019123360839531985,0.015647136668651557,-0.012707805773531101,0.0018310546875,-0.0053863525390625,-1.0052947998046875,226.00059509277344,192.00579833984375,-619.3951416015625,,,,,,,,,,
0,2019-06-14 10:20:22.4300,05:13,50,0,2019-06-14 10:20:25.9440,1560522025.943908,-0.01780696031270582,0.0163275743271668,-0.01359304051987344,0.002227783203125,-0.005615234375,-1.004180908203125,226.23573303222656,191.9370574951172,-619.14794921875,,,,,,,,,,
0,2019-06-14 10:20:22.4300,05:13,50,0,2019-06-14 10:20:25.9610,1560522025.9605489,-0.01780696031270582,0.0163275743271668,-0.01359304051987344,0.002899169921875,-0.0048980712890625,-1.0041961669921875,226.93003845214844,192.28900146484375,-619.6717529296875,,,,,,,,,,
0,2019-06-14 10:20:22.4300,05:13,50,0,2019-06-14 10:20:25.9780,1560522025.977566,-0.017894045680351408,0.016271914260384147,-0.012891031256528553,-0.0001678466796875,-0.006805419921875,-1.004486083984375,227.244384765625,192.15919494628906,-619.585205078125,,,,,,,,,,
0,2019-06-14 10:20:22.4300,05:13,50,0,2019-06-14 10:20:25.9940,1560522025.994009,-0.018337994634067618,0.017322264994311398,-0.011837218413184199,-0.0001678466796875,-0.006805419921875,-1.004486083984375,226.0931854248047,192.12142944335938,-619.1342163085938,,,,,,,,,,
0,2019-06-14 10:20:22.4300,05:13,50,0,2019-06-14 10:20:26.0110,1560522026.010819,-0.017670340148784755,0.016437296564078066,-0.013345100222387062,0.0018157958984375,-0.0073394775390625,-1.0075531005859375,226.53707885742188,192.02017211914062,-619.303955078125,,,,,,,,,,
0,2019-06-14 10:20:22.4300,05:13,50,0,2019-06-14 10:20:26.0440,1560522026.0441542,-0.01842880842723932,0.016783773821897375,-0.013403423450259798,0.0016632080078125,-0.0055084228515625,-1.0032958984375,226.62493896484375,192.07835388183594,-619.4204711914062,,,,,,,,,,
0,2019-06-14 10:20:22.4300,05:13,50,0,2019-06-14 10:20:26.0610,1560522026.0607529,-0.01842880842723932,0.016783773821897375,-0.013403423450259798,-0.0004730224609375,-0.0073699951171875,-1.003173828125,226.35177612304688,192.3360137939453,-619.1544799804688,,,,,,,,,,
0,2019-06-14 10:20:22.4300,05:13,50,0,2019-06-14 10:20:26.0780,1560522026.077501,-0.01816329126655842,0.017144365833494105,-0.01276453110474979,0.001861572265625,-0.0070953369140625,-1.003814697265625,227.0870361328125,192.3993682861328,-619.4907836914062,,,,,,,,,,
0,2019-06-14 10:20:22.4300,05:13,50,0,2019-06-14 10:20:26.0940,1560522026.0940719,-0.01881230362421073,0.016808274903926106,-0.013706757498419823,0.001861572265625,-0.0070953369140625,-1.003814697265625,227.04067993164062,192.35191345214844,-619.5675659179688,,,,,,,,,,
0,2019-06-14 10:20:22.4300,05:13,50,0,2019-06-14 10:20:26.1110,1560522026.1107368,-0.019610719319016486,0.017021327791132444,-0.012363459044583856,0.00164794921875,-0.006622314453125,-1.004608154296875,225.98089599609375,192.24722290039062,-619.3807983398438,,,,,,,,,,
0,2019-06-14 10:20:22.4300,05:13,50,0,2019-06-14 10:20:26.1440,1560522026.1440659,-0.018237859777080638,0.017640512744575867,-0.01345961614926047,0.0,-0.00469970703125,-1.0064849853515625,226.33944702148438,191.94810485839844,-619.4118041992188,,,,,,,,,,
0,2019-06-14 10:20:22.4300,05:13,50,0,2019-06-14 10:20:26.1610,1560522026.1606278,-0.018237859777080638,0.017640512744575867,-0.01345961614926047,0.00140380859375,-0.0061187744140625,-1.0042724609375,226.33944702148438,191.94810485839844,-619.4118041992188,,,,,,,,,,
0,2019-06-14 10:20:22.4300,05:13,50,0,2019-06-14 10:20:26.1780,1560522026.177669,-0.016614929408786352,0.015680426182277548,-0.013242302204310004,-0.0005035400390625,-0.0074615478515625,-1.0058441162109375,226.2719268798828,192.11904907226562,-619.3975219726562,,,,,,,,,,
0,2019-06-14 10:20:22.4300,05:13,50,0,2019-06-14 10:20:26.1940,1560522026.1939921,-0.017422399851298377,0.017276458623562033,-0.01239222118435671,-0.0005035400390625,-0.0074615478515625,-1.0058441162109375,227.21792602539062,192.35179138183594,-619.629150390625,,,,,,,,,,
0,2019-06-14 10:20:22.4300,05:13,50,0,2019-06-14 10:20:26.2110,1560522026.210809,-0.018560102268980225,0.01632278063720466,-0.013002351390093864,-0.0003509521484375,-0.004669189453125,-1.004180908203125,226.93630981445312,192.41729736328125,-619.6566772460938,,,,,,,,,,
0,2019-06-14 10:20:22.4300,05:13,50,0,2019-06-14 10:20:26.2440,1560522026.243991,-0.017920410975143193,0.018091918549344298,-0.01173575197565218,0.0011444091796875,-0.005859375,-1.0020294189453125,225.9885711669922,191.87289428710938,-619.2155151367188,,,,,,,,,,
0,2019-06-14 10:20:22.4300,05:13,50,0,2019-06-14 10:20:26.2610,1560522026.260922,-0.017920410975143193,0.018091918549344298,-0.01173575197565218,0.0015411376953125,-0.0057830810546875,-1.00506591796875,226.43096923828125,192.02174377441406,-619.279541015625,,,,,,,,,,
0,2019-06-14 10:20:22.4300,05:13,50,0,2019-06-14 10:20:26.2780,1560522026.277584,-0.01779391082336443,0.016670855791678017,-0.012119779804841605,0.0009613037109375,-0.0052337646484375,-1.0063018798828125,226.43096923828125,192.02174377441406,-619.279541015625,,,,,,,,,,
0,2019-06-14 10:20:22.4300,05:13,50,0,2019-06-14 10:20:26.2940,1560522026.294054,-0.01905491759951695,0.01623809211454014,-0.012537629779875038,0.0009613037109375,-0.0052337646484375,-1.0063018798828125,226.18368530273438,192.00514221191406,-619.3797607421875,,,,,,,,,,
0,2019-06-14 10:20:22.4300,05:13,50,0,2019-06-14 10:20:26.3110,1560522026.310893,-0.01751188206392504,0.017799769777762604,-0.011790080461889795,0.0027313232421875,-0.007232666015625,-1.006317138671875,226.81045532226562,192.18768310546875,-619.5914306640625,,,,,,,,,,
0,2019-06-14 10:20:22.4300,05:13,50,0,2019-06-14 10:20:26.3440,1560522026.344133,-0.018159829157141316,0.016390957561110687,-0.011854262644160705,0.0008697509765625,-0.0057220458984375,-1.002899169921875,226.01231384277344,192.22532653808594,-619.3148193359375,,,,,,,,,,
0,2019-06-14 10:20:22.4300,05:13,50,0,2019-06-14 10:20:26.3610,1560522026.360693,-0.018159829157141316,0.016390957561110687,-0.011854262644160705,-0.0006103515625,-0.005767822265625,-1.0023040771484375,226.32350158691406,192.1372528076172,-619.353271484375,,,,,,,,,,
0,2019-06-14 10:20:22.4300,05:13,50,0,2019-06-14 10:20:26.3780,1560522026.377931,-0.0187340066881624,0.015597335556267074,-0.013710219607836926,0.0008392333984375,-0.0066986083984375,-1.004364013671875,226.2113494873047,192.29367065429688,-619.4183959960938,,,,,,,,,,
0,2019-06-14 10:20:22.4300,05:13,50,0,2019-06-14 10:20:26.3940,1560522026.394063,-0.019578761385935537,0.01677258854531904,-0.012595686691638765,0.0008392333984375,-0.0066986083984375,-1.004364013671875,226.2113494873047,192.29367065429688,-619.4183959960938,,,,,,,,,,
0,2019-06-14 10:20:22.4300,05:13,50,0,2019-06-14 10:20:26.4110,1560522026.410808,-0.01950525813984935,0.018073276421713743,-0.013099290453772748,0.0020904541015625,-0.0044403076171875,-1.0032958984375,226.44879150390625,192.22457885742188,-619.500732421875,,,,,,,,,,
0,2019-06-14 10:20:22.4300,05:13,50,0,2019-06-14 10:20:26.4440,1560522026.444158,-0.01933987583615543,0.018257567169147226,-0.01262072040588551,0.00079345703125,-0.007110595703125,-1.0056304931640625,227.39479064941406,192.2311248779297,-619.56201171875,,,,,,,,,,
0,2019-06-14 10:20:22.4300,05:13,50,0,2019-06-14 10:20:26.4610,1560522026.460561,-0.01933987583615543,0.018257567169147226,-0.01262072040588551,0.00244140625,-0.0059967041015625,-1.0030975341796875,226.7051544189453,192.10789489746094,-619.369873046875,,,,,,,,,,
0,2019-06-14 10:20:22.4300,05:13,50,0,2019-06-14 10:20:26.4780,1560522026.477734,-0.01832654304138028,0.01662052204707552,-0.011139736523692446,0.00048828125,-0.004669189453125,-1.0047760009765625,226.28233337402344,192.33145141601562,-619.182861328125,,,,,,,,,,
0,2019-06-14 10:20:22.4300,05:13,50,0,2019-06-14 10:20:26.4940,1560522026.494237,-0.01727059966916386,0.01555685550769787,-0.013386645535392299,0.00048828125,-0.004669189453125,-1.0047760009765625,226.31082153320312,192.4059295654297,-619.1687622070312,,,,,,,,,,
0,2019-06-14 10:20:22.4300,05:13,50,0,2019-06-14 10:20:26.5110,1560522026.510879,-0.018112424889737907,0.0163139922056074,-0.013581322611077092,-0.0013427734375,-0.0048370361328125,-1.0035858154296875,226.31082153320312,192.4059295654297,-619.1687622070312,,,,,,,,,,
0,2019-06-14 10:20:22.4300,05:13,50,0,2019-06-14 10:20:26.5440,1560522026.543944,-0.01776168657417447,0.01658270515959639,-0.010844391958802657,0.0007171630859375,-0.00543212890625,-1.001190185546875,227.07986450195312,192.4008026123047,-619.5476684570312,,,,,,,,,,
0,2019-06-14 10:20:22.4300,05:13,50,0,2019-06-14 10:20:26.5610,1560522026.56073,-0.01776168657417447,0.01658270515959639,-0.010844391958802657,0.0011444091796875,-0.005828857421875,-1.0047149658203125,227.3217315673828,192.3722686767578,-619.1248168945312,,,,,,,,,,
0,2019-06-14 10:20:22.4300,05:13,50,0,2019-06-14 10:20:26.5770,1560522026.577466,-0.017823738227573317,0.0162199826191276,-0.013115535736422232,-0.000396728515625,-0.0068511962890625,-1.00390625,226.67233276367188,192.23040771484375,-618.9786376953125,,,,,,,,,,
0,2019-06-14 10:20:22.4300,05:13,50,0,2019-06-14 10:20:26.5940,1560522026.594137,-0.018089521704363225,0.014643124937691683,-0.011823103659406777,-0.000396728515625,-0.0068511962890625,-1.00390625,226.67115783691406,192.20558166503906,-619.145751953125,,,,,,,,,,
0,2019-06-14 10:20:22.4300,05:13,50,0,2019-06-14 10:20:26.6110,1560522026.611044,-0.01873187615929034,0.01703544254490986,-0.011999138607461015,0.000335693359375,-0.0053558349609375,-1.0034942626953125,226.449951171875,192.1034698486328,-619.1383666992188,,,,,,,,,,
0,2019-06-14 10:20:22.4300,05:13,50,0,2019-06-14 10:20:26.6430,1560522026.6433148,-0.017241304897172988,0.016886305523865424,-0.01236931799898203,0.0008697509765625,-0.0070343017578125,-1.002655029296875,226.49371337890625,192.0148468017578,-619.2742919921875,,,,,,,,,,
0,2019-06-14 10:20:22.4300,05:13,50,0,2019-06-14 10:20:26.6610,1560522026.6606622,-0.017241304897172988,0.016886305523865424,-0.01236931799898203,0.0001678466796875,-0.005523681640625,-1.002960205078125,227.20108032226562,192.302978515625,-619.5114135742188,,,,,,,,,,
0,2019-06-14 10:20:22.4300,05:13,50,0,2019-06-14 10:20:26.6770,1560522026.6765609,-0.019313244225254635,0.016832509669845824,-0.01192164061973971,1.52587890625e-05,-0.0063018798828125,-1.004608154296875,226.7396240234375,192.3088836669922,-619.075927734375,,,,,,,,,,
0,2019-06-14 10:20:22.4300,05:13,50,0,2019-06-14 10:20:26.6940,1560522026.694148,-0.017982995260760058,0.016080965610225463,-0.012820990119859469,1.52587890625e-05,-0.0063018798828125,-1.004608154296875,226.49948120117188,191.98069763183594,-618.9263305664062,,,,,,,,,,
0,2019-06-14 10:20:22.4300,05:13,50,0,2019-06-14 10:20:26.7110,1560522026.710854,-0.017838385613568753,0.016662866308407777,-0.010645187509264731,-0.0005950927734375,-0.005645751953125,-1.00543212890625,226.38380432128906,192.05519104003906,-618.8760375976562,,,,,,,,,,
0,2019-06-14 10:20:22.4300,05:13,50,0,2019-06-14 10:20:26.7440,1560522026.743967,-0.018391257855869203,0.015418903763231765,-0.012473713913713136,-0.0010528564453125,-0.0052490234375,-1.0022735595703125,226.4656219482422,192.2261199951172,-619.2145385742188,,,,,,,,,,
0,2019-06-14 10:20:22.4300,05:13,50,0,2019-06-14 10:20:26.7610,1560522026.760668,-0.018391257855869203,0.015418903763231765,-0.012473713913713136,0.001373291015625,-0.0053253173828125,-1.00433349609375,226.27365112304688,192.0945587158203,-619.020751953125,,,,,,,,,,
0,2019-06-14 10:20:22.4300,05:13,50,0,2019-06-14 10:20:26.7780,1560522026.7777262,-0.017495636781275557,0.01715528479396343,-0.01213442719083704,0.0013427734375,-0.007965087890625,-1.003173828125,226.91038513183594,192.2607879638672,-619.4581298828125,,,,,,,,,,
0,2019-06-14 10:20:22.4300,05:13,50,0,2019-06-14 10:20:26.7940,1560522026.794138,-0.018593391782606217,0.017447167249436114,-0.012872921761116013,0.0013427734375,-0.007965087890625,-1.003173828125,226.53759765625,192.05776977539062,-619.200439453125,,,,,,,,,,
0,2019-06-14 10:20:22.4300,05:13,50,0,2019-06-14 10:20:26.8110,1560522026.810899,-0.018113490154173937,0.016408268108196202,-0.012648417281222334,0.0001373291015625,-0.00518798828125,-1.0045623779296875,226.50514221191406,192.0519561767578,-619.1490478515625,,,,,,,,,,
0,2019-06-14 10:20:22.4300,05:13,50,0,2019-06-14 10:20:26.8300,1560522026.830421,-0.018342522007920754,0.017334249219216752,-0.013137373657360882,-0.0010528564453125,-0.0068511962890625,-1.0067291259765625,226.56747436523438,192.12429809570312,-619.2326049804688,,,,,,,,,,
0,2019-06-14 10:20:22.4300,05:13,50,0,2019-06-14 10:20:26.8610,1560522026.860801,-0.019083413423180796,0.015381086875752641,-0.013241769572091989,0.00140380859375,-0.006072998046875,-1.0021514892578125,226.4272003173828,192.23199462890625,-619.0925903320312,,,,,,,,,,
0,2019-06-14 10:20:22.4300,05:13,50,0,2019-06-14 10:20:26.8770,1560522026.877461,-0.01795183627600613,0.015291604663125978,-0.0129195270801924,0.0009613037109375,-0.0080718994140625,-1.0034027099609375,226.63766479492188,192.2549591064453,-619.2703857421875,,,,,,,,,,
0,2019-06-14 10:20:22.4300,05:13,50,0,2019-06-14 10:20:26.8940,1560522026.89428,-0.01894040167264354,0.01651852297732548,-0.012291820011260723,-0.000152587890625,-0.00543212890625,-1.00482177734375,227.1416015625,192.43983459472656,-619.4932250976562,,,,,,,,,,
0,2019-06-14 10:20:22.4300,05:13,50,0,2019-06-14 10:20:26.9110,1560522026.910884,-0.019298330523150192,0.016963270879368716,-0.012994894539041643,-0.000152587890625,-0.00543212890625,-1.00482177734375,226.34043884277344,192.1204071044922,-619.09619140625,,,,,,,,,,
0,2019-06-14 10:20:22.4300,05:13,50,0,2019-06-14 10:20:26.9440,1560522026.94436,-0.01771428230677106,0.01716274164501565,-0.012668657305506936,0.00189208984375,-0.0066375732421875,-1.0030670166015625,226.27609252929688,192.11221313476562,-619.08154296875,,,,,,,,,,
0,2019-06-14 10:20:22.4300,05:13,50,0,2019-06-14 10:20:26.9600,1560522026.959615,-0.01771428230677106,0.01716274164501565,-0.012668657305506936,0.000457763671875,-0.008026123046875,-1.0057373046875,226.27609252929688,192.11221313476562,-619.08154296875,,,,,,,,,,
0,2019-06-14 10:20:22.4300,05:13,50,0,2019-06-14 10:20:26.9770,1560522026.977469,-0.01772200547393229,0.015528892316252037,-0.012174108291079221,0.0009765625,-0.0050048828125,-1.004302978515625,226.0946044921875,192.24073791503906,-619.1805419921875,,,,,,,,,,
0,2019-06-14 10:20:22.4300,05:13,50,0,2019-06-14 10:20:26.9940,1560522026.994103,-0.01791561728518105,0.017112674216522163,-0.013018862988852357,0.0009765625,-0.0050048828125,-1.004302978515625,226.5658416748047,192.26156616210938,-619.285400390625,,,,,,,,,,
0,2019-06-14 10:20:22.4300,05:13,50,0,2019-06-14 10:20:27.0110,1560522027.010758,-0.01808126590498398,0.016761403268740708,-0.012037488127158156,0.0009613037109375,-0.0066680908203125,-1.0018310546875,227.09683227539062,192.15713500976562,-619.4374389648438,,,,,,,,,,
0,2019-06-14 10:20:22.4300,05:13,50,0,2019-06-14 10:20:27.0440,1560522027.044193,-0.01960406141629129,0.0170937657727826,-0.0126002140654919,4.57763671875e-05,-0.005950927734375,-1.0060882568359375,226.55982971191406,191.99209594726562,-619.1181640625,,,,,,,,,,
0,2019-06-14 10:20:22.4300,05:13,50,0,2019-06-14 10:20:27.0610,1560522027.060779,-0.01960406141629129,0.0170937657727826,-0.0126002140654919,-0.000457763671875,-0.00860595703125,-1.0020751953125,226.46424865722656,192.05023193359375,-619.26611328125,,,,,,,,,,
0,2019-06-14 10:20:22.4300,05:13,50,0,2019-06-14 10:20:27.0780,1560522027.077965,-0.018139589132856716,0.016725716910133647,-0.011867045817393085,0.0002288818359375,-0.0063934326171875,-1.0051116943359375,226.44027709960938,192.25230407714844,-619.2080078125,,,,,,,,,,
0,2019-06-14 10:20:22.4300,05:13,50,0,2019-06-14 10:20:27.0950,1560522027.0946121,-0.018324146196399205,0.015796540005805,-0.014234596026473529,0.0008392333984375,-0.0086822509765625,-1.0041961669921875,226.44027709960938,192.25230407714844,-619.2080078125,,,,,,,,,,
0,2019-06-14 10:20:22.4300,05:13,50,0,2019-06-14 10:20:27.1110,1560522027.11079,-0.01794278152829986,0.01564926719752362,-0.013035374587610848,0.0008392333984375,-0.0086822509765625,-1.0041961669921875,226.72886657714844,192.1842498779297,-619.43359375,,,,,,,,,,
0,2019-06-14 10:20:22.4300,05:13,50,0,2019-06-14 10:20:27.1440,1560522027.144442,-0.01948075705782062,0.016163789920126927,-0.011798868893487057,0.00091552734375,-0.0068206787109375,-1.0052642822265625,226.40325927734375,192.24847412109375,-619.1835327148438,,,,,,,,,,
0,2019-06-14 10:20:22.4300,05:13,50,0,2019-06-14 10:20:27.1610,1560522027.1606898,-0.01948075705782062,0.016163789920126927,-0.011798868893487057,-0.000152587890625,-0.00775146484375,-1.004791259765625,226.3120574951172,192.30784606933594,-619.3628540039062,,,,,,,,,,
0,2019-06-14 10:20:22.4300,05:13,50,0,2019-06-14 10:20:27.1780,1560522027.1777291,-0.017965684713674542,0.017218934344016324,-0.012557337171941624,0.0026092529296875,-0.0067901611328125,-1.0022735595703125,226.64125061035156,192.07034301757812,-619.16015625,,,,,,,,,,
0,2019-06-14 10:20:22.4300,05:13,50,0,2019-06-14 10:20:27.1940,1560522027.194299,-0.018916965855050843,0.01694862349337328,-0.011263307198272123,0.001251220703125,-0.00738525390625,-1.0019073486328125,226.2115936279297,192.30596923828125,-619.050537109375,,,,,,,,,,
0,2019-06-14 10:20:22.4300,05:13,50,0,2019-06-14 10:20:27.2110,1560522027.2107692,-0.017448232513872144,0.016009859209120347,-0.012684902588156419,0.001251220703125,-0.00738525390625,-1.0019073486328125,226.2115936279297,192.30596923828125,-619.050537109375,,,,,,,,,,
0,2019-06-14 10:20:22.4300,05:13,50,0,2019-06-14 10:20:27.2430,1560522027.243007,-0.01776807816079066,0.015120097088924875,-0.012423912801328655,0.00067138671875,-0.00604248046875,-1.0018310546875,226.9784393310547,192.3719024658203,-619.2213134765625,,,,,,,,,,
0,2019-06-14 10:20:22.4300,05:13,50,0,2019-06-14 10:20:27.2610,1560522027.260682,-0.01776807816079066,0.015120097088924875,-0.012423912801328655,0.0012969970703125,-0.0063323974609375,-1.00616455078125,226.142333984375,192.0077362060547,-619.0770263671875,,,,,,,,,,
0,2019-06-14 10:20:22.4300,05:13,50,0,2019-06-14 10:20:27.2770,1560522027.277396,-0.01766288329773253,0.016729711651768765,-0.013656690069926333,0.0010528564453125,-0.00628662109375,-1.006011962890625,226.3019561767578,192.00469970703125,-618.9044189453125,,,,,,,,,,
0,2019-06-14 10:20:22.4300,05:13,50,0,2019-06-14 10:20:27.2940,1560522027.294475,-0.019377692723634554,0.0162468805461374,-0.012771455323583994,1.52587890625e-05,-0.005615234375,-1.003387451171875,226.47987365722656,192.33120727539062,-619.0186767578125,,,,,,,,,,
0,2019-06-14 10:20:22.4300,05:13,50,0,2019-06-14 10:20:27.3110,1560522027.3108401,-0.018929749028283226,0.01674702219885428,-0.012625514095847652,1.52587890625e-05,-0.005615234375,-1.003387451171875,226.47987365722656,192.33120727539062,-619.0186767578125,,,,,,,,,,
0,2019-06-14 10:20:22.4300,05:13,50,0,2019-06-14 10:20:27.3430,1560522027.342999,-0.019460783349645024,0.01663969680692409,-0.011712049841950473,0.000335693359375,-0.0051727294921875,-1.0025634765625,227.20443725585938,192.31549072265625,-619.4321899414062,,,,,,,,,,
0,2019-06-14 10:20:22.4300,05:13,50,0,2019-06-14 10:20:27.3610,1560522027.360816,-0.019460783349645024,0.01663969680692409,-0.011712049841950473,0.000152587890625,-0.0063323974609375,-1.004730224609375,227.3383026123047,192.20570373535156,-619.5068359375,,,,,,,,,,
0,2019-06-14 10:20:22.4300,05:13,50,0,2019-06-14 10:20:27.3780,1560522027.3776941,-0.017733989698837646,0.01602983291729594,-0.012369850631200045,7.62939453125e-05,-0.005767822265625,-1.004180908203125,226.42764282226562,192.04754638671875,-619.1634521484375,,,,,,,,,,
0,2019-06-14 10:20:22.4300,05:13,50,0,2019-06-14 10:20:27.3940,1560522027.394342,-0.0176887159603063,0.0182634261235454,-0.01218848936096565,-0.0001678466796875,-0.0055999755859375,-1.0019073486328125,226.09854125976562,192.0294189453125,-619.3026123046875,,,,,,,,,,
0,2019-06-14 10:20:22.4300,05:13,50,0,2019-06-14 10:20:27.4110,1560522027.411161,-0.017587782154992296,0.018282334567284963,-0.014868694682021394,-0.0001678466796875,-0.0055999755859375,-1.0019073486328125,226.2795867919922,191.9583282470703,-619.15673828125,,,,,,,,,,
0,2019-06-14 10:20:22.4300,05:13,50,0,2019-06-14 10:20:27.4440,1560522027.4439569,-0.018678346621379745,0.016935041371813876,-0.013223393760570442,0.0012359619140625,-0.0056915283203125,-1.00091552734375,226.33721923828125,192.03578186035156,-618.8806762695312,,,,,,,,,,
0,2019-06-14 10:20:22.4300,05:13,50,0,2019-06-14 10:20:27.4610,1560522027.460752,-0.018678346621379745,0.016935041371813876,-0.013223393760570442,0.00018310546875,-0.006256103515625,-1.002838134765625,227.14639282226562,192.25625610351562,-618.7354125976562,,,,,,,,,,
0,2019-06-14 10:20:22.4300,05:13,50,0,2019-06-14 10:20:27.4770,1560522027.477427,-0.01748871256244135,0.017196297474750648,-0.012547217159799322,0.0008392333984375,-0.0066986083984375,-1.00567626953125,227.1544952392578,192.32156372070312,-619.42333984375,,,,,,,,,,
0,2019-06-14 10:20:22.4300,05:13,50,0,2019-06-14 10:20:27.4950,1560522027.494564,-0.019374763246435465,0.016678578958839244,-0.012081430285144464,0.001129150390625,-0.0060272216796875,-1.0002288818359375,226.7718048095703,191.9659423828125,-619.2208251953125,,,,,,,,,,
0,2019-06-14 10:20:22.4300,05:13,50,0,2019-06-14 10:20:27.5110,1560522027.510776,-0.01900351859047842,0.01652411561561465,-0.013002085073984856,0.001129150390625,-0.0060272216796875,-1.0002288818359375,226.51641845703125,191.95687866210938,-618.863037109375,,,,,,,,,,
0,2019-06-14 10:20:22.4300,05:13,50,0,2019-06-14 10:20:27.5440,1560522027.5438929,-0.01739736613705163,0.016816264387196342,-0.012307532661692192,-0.000640869140625,-0.0056610107421875,-1.005706787109375,226.9068603515625,191.7731170654297,-619.2984619140625,,,,,,,,,,
0,2019-06-14 10:20:22.4300,05:13,50,0,2019-06-14 10:20:27.5610,1560522027.560677,-0.01739736613705163,0.016816264387196342,-0.012307532661692192,0.0018463134765625,-0.0070037841796875,-1.005218505859375,226.5443115234375,192.02386474609375,-618.9923706054688,,,,,,,,,,
0,2019-06-14 10:20:22.4300,05:13,50,0,2019-06-14 10:20:27.5780,1560522027.577575,-0.018385931533689046,0.015552061817735727,-0.010802846645797422,-0.0001068115234375,-0.0054473876953125,-1.0039520263671875,227.09771728515625,192.25396728515625,-619.3079833984375,,,,,,,,,,
0,2019-06-14 10:20:22.4300,05:13,50,0,2019-06-14 10:20:27.5950,1560522027.594528,-0.017855163528436253,0.016694025293161704,-0.01247957286811131,0.0005035400390625,-0.0055694580078125,-1.0040130615234375,227.1143798828125,192.19593811035156,-619.3746948242188,,,,,,,,,,
0,2019-06-14 10:20:22.4300,05:13,50,0,2019-06-14 10:20:27.6110,1560522027.6107879,-0.017874604604393832,0.01688044656946725,-0.012722186843417528,0.0005035400390625,-0.0055694580078125,-1.0040130615234375,226.16949462890625,191.92510986328125,-619.09814453125,,,,,,,,,,
0,2019-06-14 10:20:22.4300,05:13,50,0,2019-06-14 10:20:27.6440,1560522027.644321,-0.01856090121730725,0.01674329377332817,-0.013535516240327727,4.57763671875e-05,-0.0055999755859375,-1.00213623046875,226.4718475341797,191.93275451660156,-619.1369018554688,,,,,,,,,,
0,2019-06-14 10:20:22.4300,05:13,50,0,2019-06-14 10:20:27.6610,1560522027.660665,-0.01856090121730725,0.01674329377332817,-0.013535516240327727,0.00067138671875,-0.0057830810546875,-1.0094451904296875,226.4718475341797,191.93275451660156,-619.1369018554688,,,,,,,,,,
0,2019-06-14 10:20:22.4300,05:13,50,0,2019-06-14 10:20:27.6780,1560522027.677572,-0.018927085867193147,0.015810122127364407,-0.011960256455545859,0.00128173828125,-0.005889892578125,-1.0058135986328125,226.45159912109375,192.20553588867188,-618.9066772460938,,,,,,,,,,
0,2019-06-14 10:20:22.4300,05:13,50,0,2019-06-14 10:20:27.6940,1560522027.6943588,-0.01963868251046232,0.01636592384686394,-0.012291820011260723,0.001373291015625,-0.0054473876953125,-1.0048065185546875,226.8957061767578,192.21185302734375,-619.4237670898438,,,,,,,,,,
0,2019-06-14 10:20:22.4300,05:13,50,0,2019-06-14 10:20:27.7110,1560522027.71104,-0.018347315697882897,0.01633902591985414,-0.012139487196908192,0.001373291015625,-0.0054473876953125,-1.0048065185546875,227.0369415283203,192.3858642578125,-619.2015380859375,,,,,,,,,,
0,2019-06-14 10:20:22.4300,05:13,50,0,2019-06-14 10:20:27.7440,1560522027.744133,-0.018038122695324697,0.015562181829878029,-0.0130774525328341,0.0008544921875,-0.006256103515625,-1.0004425048828125,226.0054931640625,192.16168212890625,-619.102294921875,,,,,,,,,,
0,2019-06-14 10:20:22.4300,05:13,50,0,2019-06-14 10:20:27.7610,1560522027.760806,-0.018038122695324697,0.015562181829878029,-0.0130774525328341,0.0005645751953125,-0.0063934326171875,-1.00262451171875,226.47509765625,192.04969787597656,-618.960693359375,,,,,,,,,,
0,2019-06-14 10:20:22.4300,05:13,50,0,2019-06-14 10:20:27.7780,1560522027.777607,-0.019464778091280145,0.016827449663774675,-0.012135226139164065,-0.0002288818359375,-0.0062255859375,-1.0037078857421875,226.47509765625,192.04969787597656,-618.960693359375,,,,,,,,,,
0,2019-06-14 10:20:22.4300,05:13,50,0,2019-06-14 10:20:27.7950,1560522027.794879,-0.018275942980668772,0.0166905631837446,-0.013725932258268394,0.000152587890625,-0.006072998046875,-1.006317138671875,226.68212890625,192.03619384765625,-619.0052490234375,,,,,,,,,,
0,2019-06-14 10:20:22.4300,05:13,50,0,2019-06-14 10:20:27.8110,1560522027.8108392,-0.018021611096566206,0.017168866915522833,-0.012170646181662118,0.000152587890625,-0.006072998046875,-1.006317138671875,227.50238037109375,192.30413818359375,-619.1560668945312,,,,,,,,,,
0,2019-06-14 10:20:22.4300,05:13,50,0,2019-06-14 10:20:27.8440,1560522027.84447,-0.01924213782414952,0.015289474134253914,-0.011404454736046322,0.000335693359375,-0.00506591796875,-1.0040435791015625,226.1171417236328,192.0229949951172,-618.8860473632812,,,,,,,,,,
0,2019-06-14 10:20:22.4300,05:13,50,0,2019-06-14 10:20:27.8610,1560522027.860732,-0.01924213782414952,0.015289474134253914,-0.011404454736046322,0.0033111572265625,-0.0068817138671875,-1.005401611328125,226.44947814941406,192.0126953125,-618.8814697265625,,,,,,,,,,
0,2019-06-14 10:20:22.4300,05:13,50,0,2019-06-14 10:20:27.8780,1560522027.877737,-0.016842097049770112,0.01458586697425498,-0.012983975578572319,-0.0003204345703125,-0.004608154296875,-1.004608154296875,226.29783630371094,192.0125732421875,-618.930908203125,,,,,,,,,,
0,2019-06-14 10:20:22.4300,05:13,50,0,2019-06-14 10:20:27.8940,1560522027.894477,-0.019795542698667984,0.016353673305849577,-0.0121935493670368,6.103515625e-05,-0.006103515625,-1.005096435546875,226.29783630371094,192.0125732421875,-618.930908203125,,,,,,,,,,
0,2019-06-14 10:20:22.4300,05:13,50,0,2019-06-14 10:20:27.9110,1560522027.911285,-0.01829538405662635,0.016391490193328702,-0.012767726898057883,6.103515625e-05,-0.006103515625,-1.005096435546875,226.37030029296875,192.0550079345703,-619.1154174804688,,,,,,,,,,
0,2019-06-14 10:20:22.4300,05:13,50,0,2019-06-14 10:20:27.9440,1560522027.943934,-0.019589414030295852,0.0178903172548253,-0.013115535736422232,0.0006256103515625,-0.005279541015625,-1.002685546875,226.97979736328125,192.17495727539062,-619.319091796875,,,,,,,,,,
0,2019-06-14 10:20:22.4300,05:13,50,0,2019-06-14 10:20:27.9600,1560522027.959669,-0.019589414030295852,0.0178903172548253,-0.013115535736422232,0.0001983642578125,-0.0064849853515625,-1.0048065185546875,226.4278106689453,192.23692321777344,-619.104736328125,,,,,,,,,,
0,2019-06-14 10:20:22.4300,05:13,50,0,2019-06-14 10:20:27.9760,1560522027.9764261,-0.01756061791187349,0.01628549638194355,-0.012802347992228914,-0.0010223388671875,-0.0051422119140625,-1.0028839111328125,226.35716247558594,191.9567413330078,-619.0477905273438,,,,,,,,,,
0,2019-06-14 10:20:22.4300,05:13,50,0,2019-06-14 10:20:27.9940,1560522027.994329,-0.01712971844749867,0.01825570295638417,-0.01173175723401706,0.001434326171875,-0.0062255859375,-1.006988525390625,226.358642578125,192.16285705566406,-619.0159912109375,,,,,,,,,,
0,2019-06-14 10:20:22.4300,05:13,50,0,2019-06-14 10:20:28.0110,1560522028.010788,-0.017986990002395176,0.0170703299551899,-0.01330701701879893,0.001434326171875,-0.0062255859375,-1.006988525390625,226.358642578125,192.16285705566406,-619.0159912109375,,,,,,,,,,
0,2019-06-14 10:20:22.4300,05:13,50,0,2019-06-14 10:20:28.0440,1560522028.0442429,-0.0185121653693588,0.017335580799761795,-0.013093165183265566,0.00054931640625,-0.0060272216796875,-1.0042724609375,227.04808044433594,192.21502685546875,-619.3131713867188,,,,,,,,,,
0,2019-06-14 10:20:22.4300,05:13,50,0,2019-06-14 10:20:28.0610,1560522028.06076,-0.0185121653693588,0.017335580799761795,-0.013093165183265566,0.0007476806640625,-0.0069580078125,-1.0047760009765625,226.89480590820312,192.33985900878906,-619.2440795898438,,,,,,,,,,
0,2019-06-14 10:20:22.4300,05:13,50,0,2019-06-14 10:20:28.0770,1560522028.077384,-0.018230935558246432,0.01694729191282824,-0.013588779462129313,0.001922607421875,-0.0061798095703125,-1.0035552978515625,226.31732177734375,192.14027404785156,-619.0941772460938,,,,,,,,,,
0,2019-06-14 10:20:22.4300,05:13,50,0,2019-06-14 10:20:28.0940,1560522028.09432,-0.017684721218671182,0.01635607015083065,-0.013137107341251874,0.00018310546875,-0.006561279296875,-1.0098724365234375,226.3595428466797,192.1693115234375,-619.161376953125,,,,,,,,,,
0,2019-06-14 10:20:22.4300,05:13,50,0,2019-06-14 10:20:28.1110,1560522028.111126,-0.017085243657294344,0.01779897082943558,-0.01241166226031429,0.00018310546875,-0.006561279296875,-1.0098724365234375,226.3252410888672,192.10336303710938,-619.3035888671875,,,,,,,,,,
0,2019-06-14 10:20:22.4300,05:13,50,0,2019-06-14 10:20:28.1440,1560522028.144047,-0.019418705404421772,0.018153970202743144,-0.013734454373756647,0.0013885498046875,-0.00537109375,-1.002349853515625,226.561279296875,192.1659393310547,-618.8759765625,,,,,,,,,,
0,2019-06-14 10:20:22.4300,05:13,50,0,2019-06-14 10:20:28.1610,1560522028.160738,-0.019418705404421772,0.018153970202743144,-0.013734454373756647,-0.0001678466796875,-0.006317138671875,-1.0016021728515625,227.11941528320312,192.3443603515625,-619.240478515625,,,,,,,,,,
0,2019-06-14 10:20:22.4300,05:13,50,0,2019-06-14 10:20:28.1770,1560522028.1773648,-0.01802613847041934,0.016256467926061686,-0.01171125089362345,0.000640869140625,-0.0063323974609375,-1.0028533935546875,227.07518005371094,192.20753479003906,-619.072509765625,,,,,,,,,,
0,2019-06-14 10:20:22.4300,05:13,50,0,2019-06-14 10:20:28.1940,1560522028.194335,-0.01843413474941948,0.017259680708694537,-0.013620737395210265,0.000152587890625,-0.0056915283203125,-1.0049896240234375,226.32177734375,192.18348693847656,-618.6567993164062,,,,,,,,,,
0,2019-06-14 10:20:22.4300,05:13,50,0,2019-06-14 10:20:28.2110,1560522028.210758,-0.018324678828617224,0.016610668351042225,-0.013066000940146759,0.000152587890625,-0.0056915283203125,-1.0049896240234375,226.3084259033203,192.41921997070312,-618.71435546875,,,,,,,,,,
0,2019-06-14 10:20:22.4300,05:13,50,0,2019-06-14 10:20:28.2440,1560522028.2439818,-0.017767012896354628,0.016526246144486712,-0.0127951574572857,0.0004730224609375,-0.0050811767578125,-1.0048065185546875,226.68821716308594,192.3619384765625,-619.2843627929688,,,,,,,,,,
0,2019-06-14 10:20:22.4300,05:13,50,0,2019-06-14 10:20:28.2610,1560522028.26106,-0.017767012896354628,0.016526246144486712,-0.0127951574572857,-0.000274658203125,-0.0053558349609375,-1.00421142578125,226.15020751953125,192.1805877685547,-619.0133666992188,,,,,,,,,,
0,2019-06-14 10:20:22.4300,05:13,50,0,2019-06-14 10:20:28.2770,1560522028.277474,-0.018906845842908544,0.016598151493918852,-0.012716860521237371,-0.001495361328125,-0.0047149658203125,-1.00421142578125,227.11341857910156,192.4212188720703,-619.4501342773438,,,,,,,,,,
0,2019-06-14 10:20:22.4300,05:13,50,0,2019-06-14 10:20:28.2940,1560522028.294358,-0.020357203372565698,0.016691095815962616,-0.012994628222932635,0.0001068115234375,-0.008544921875,-1.006500244140625,227.3622589111328,192.32644653320312,-619.088623046875,,,,,,,,,,
0,2019-06-14 10:20:22.4300,05:13,50,0,2019-06-14 10:20:28.3110,1560522028.310782,-0.018086592227164137,0.016271115312057122,-0.013360013924491506,0.0001068115234375,-0.008544921875,-1.006500244140625,226.3782196044922,192.16343688964844,-618.927001953125,,,,,,,,,,
0,2019-06-14 10:20:22.4300,05:13,50,0,2019-06-14 10:20:28.3440,1560522028.344293,-0.017798171881108556,0.015711052534813457,-0.013247628526490163,0.0004119873046875,-0.0069732666015625,-1.0050201416015625,226.8088836669922,191.98219299316406,-619.0983276367188,,,,,,,,,,
0,2019-06-14 10:20:22.4300,05:13,50,0,2019-06-14 10:20:28.3600,1560522028.35974,-0.017798171881108556,0.015711052534813457,-0.013247628526490163,0.0005950927734375,-0.0058441162109375,-1.005340576171875,226.8088836669922,191.98219299316406,-619.0983276367188,,,,,,,,,,
0,2019-06-14 10:20:22.4300,05:13,50,0,2019-06-14 10:20:28.3770,1560522028.3774629,-0.01800563213002573,0.0163139922056074,-0.012405536989807108,0.002105712890625,-0.0070648193359375,-1.0040740966796875,226.24993896484375,192.23379516601562,-619.21240234375,,,,,,,,,,
0,2019-06-14 10:20:22.4300,05:13,50,0,2019-06-14 10:20:28.3940,1560522028.394329,-0.017647969595628088,0.017254620702623385,-0.012418320163039488,0.0008544921875,-0.0056915283203125,-1.0028076171875,227.16294860839844,192.5069122314453,-619.2750244140625,,,,,,,,,,
0,2019-06-14 10:20:22.4300,05:13,50,0,2019-06-14 10:20:28.4110,1560522028.411248,-0.01787060986275871,0.01708843945060244,-0.012794092192849668,0.0008544921875,-0.0056915283203125,-1.0028076171875,226.93771362304688,192.2554168701172,-618.9691162109375,,,,,,,,,,
0,2019-06-14 10:20:22.4300,05:13,50,0,2019-06-14 10:20:28.4430,1560522028.443126,-0.019240539927495474,0.015670306170135245,-0.012730176326687766,0.0007781982421875,-0.00665283203125,-1.0034332275390625,226.1767578125,191.99749755859375,-619.1431884765625,,,,,,,,,,
0,2019-06-14 10:20:22.4300,05:13,50,0,2019-06-14 10:20:28.4610,1560522028.4610062,-0.019240539927495474,0.015670306170135245,-0.012730176326687766,0.0019683837890625,-0.0052032470703125,-1.0036468505859375,226.47125244140625,192.26170349121094,-619.0203857421875,,,,,,,,,,
0,2019-06-14 10:20:22.4300,05:13,50,0,2019-06-14 10:20:28.4780,1560522028.4775538,-0.018493256925619237,0.01684982021693134,-0.013223127444461434,0.0008544921875,-0.0046844482421875,-1.0035858154296875,226.47125244140625,192.26170349121094,-619.0203857421875,,,,,,,,,,
0,2019-06-14 10:20:22.4300,05:13,50,0,2019-06-14 10:20:28.4940,1560522028.49433,-0.01843120527222039,0.01653663247273802,-0.013430587693378605,0.00091552734375,-0.007232666015625,-1.002685546875,226.45359802246094,192.10169982910156,-619.0367431640625,,,,,,,,,,
0,2019-06-14 10:20:22.4300,05:13,50,0,2019-06-14 10:20:28.5110,1560522028.510823,-0.018022942677111246,0.016990435122487525,-0.013121927323038423,0.00091552734375,-0.007232666015625,-1.002685546875,227.1453399658203,192.4163055419922,-618.9178466796875,,,,,,,,,,
0,2019-06-14 10:20:22.4300,05:13,50,0,2019-06-14 10:20:28.5430,1560522028.543473,-0.016758207475432614,0.017027453061639625,-0.01284655646632423,0.0004119873046875,-0.0061492919921875,-1.0042266845703125,226.2735595703125,192.17724609375,-618.8814697265625,,,,,,,,,,
0,2019-06-14 10:20:22.4300,05:13,50,0,2019-06-14 10:20:28.5590,1560522028.559286,-0.016758207475432614,0.017027453061639625,-0.01284655646632423,0.0001373291015625,-0.0048675537109375,-1.001129150390625,226.34152221679688,192.22984313964844,-618.9390258789062,,,,,,,,,,
0,2019-06-14 10:20:22.4300,05:13,50,0,2019-06-14 10:20:28.5760,1560522028.5764709,-0.016771256964774002,0.01699735934132173,-0.012622584618648566,0.001373291015625,-0.0061187744140625,-1.0029449462890625,226.34152221679688,192.22984313964844,-618.9390258789062,,,,,,,,,,
0,2019-06-14 10:20:22.4300,05:13,50,0,2019-06-14 10:20:28.5930,1560522028.5930781,-0.018904182681818465,0.01604927399325352,-0.012683837323720387,0.001373291015625,-0.0061187744140625,-1.0029449462890625,226.36654663085938,192.1087646484375,-618.977294921875,,,,,,,,,,
0,2019-06-14 10:20:22.4300,05:13,50,0,2019-06-14 10:20:28.6110,1560522028.6108708,-0.019051988122317863,0.017463945164303614,-0.012106463999391208,-0.000152587890625,-0.006988525390625,-1.0033111572265625,226.7369842529297,192.39376831054688,-618.8214111328125,,,,,,,,,,
0,2019-06-14 10:20:22.4300,05:13,50,0,2019-06-14 10:20:28.6440,1560522028.64427,-0.020522585676259617,0.016307334302882198,-0.012891031256528553,0.0017852783203125,-0.004974365234375,-1.0050506591796875,226.32064819335938,192.00869750976562,-618.8836669921875,,,,,,,,,,
0,2019-06-14 10:20:22.4300,05:13,50,0,2019-06-14 10:20:28.6610,1560522028.66078,-0.020522585676259617,0.016307334302882198,-0.012891031256528553,-4.57763671875e-05,-0.006195068359375,-1.00457763671875,226.1701202392578,192.1464385986328,-619.086669921875,,,,,,,,,,
0,2019-06-14 10:20:22.4300,05:13,50,0,2019-06-14 10:20:28.6780,1560522028.67752,-0.019467174936261215,0.01627511005369224,-0.012677445737104198,0.003021240234375,-0.0082550048828125,-1.0023193359375,226.46762084960938,192.26904296875,-618.9556884765625,,,,,,,,,,
0,2019-06-14 10:20:22.4300,05:13,50,0,2019-06-14 10:20:28.6930,1560522028.693131,-0.0189457279948237,0.016239690011194186,-0.012164254595045929,0.003021240234375,-0.0082550048828125,-1.0023193359375,226.46762084960938,192.26904296875,-618.9556884765625,,,,,,,,,,
0,2019-06-14 10:20:22.4300,05:13,50,0,2019-06-14 10:20:28.7110,1560522028.710834,-0.018318020925892024,0.017127321602517596,-0.012417521214712464,0.000518798828125,-0.006744384765625,-1.0009918212890625,226.5482177734375,192.30148315429688,-618.8985595703125,,,,,,,,,,
0,2019-06-14 10:20:22.4300,05:13,50,0,2019-06-14 10:20:28.7310,1560522028.7305431,-0.0184415916004717,0.016706275834176068,-0.01363405320066066,0.0005645751953125,-0.0052337646484375,-1.0033416748046875,226.50962829589844,192.37986755371094,-619.3350219726562,,,,,,,,,,
0,2019-06-14 10:20:22.4300,05:13,50,0,2019-06-14 10:20:28.7600,1560522028.759966,-0.01773106022163856,0.018235729248208574,-0.012553875062524521,0.0009613037109375,-0.0077056884765625,-1.006561279296875,226.23001098632812,192.21408081054688,-619.1398315429688,,,,,,,,,,
0,2019-06-14 10:20:22.4300,05:13,50,0,2019-06-14 10:20:28.7780,1560522028.777854,-0.01935478953825987,0.01634834698366942,-0.0117868846685817,0.0005340576171875,-0.0053863525390625,-1.000030517578125,226.1302947998047,192.2169189453125,-619.1296997070312,,,,,,,,,,
0,2019-06-14 10:20:22.4300,05:13,50,0,2019-06-14 10:20:28.7950,1560522028.7949572,-0.017695906495249512,0.015986157075418644,-0.011761850954334956,0.0029449462890625,-0.0083160400390625,-1.004791259765625,226.1373291015625,192.18869018554688,-619.13427734375,,,,,,,,,,
0,2019-06-14 10:20:22.4300,05:13,50,0,2019-06-14 10:20:28.8110,1560522028.811136,-0.018486066390676025,0.01747326622811889,-0.012945892374984185,0.0029449462890625,-0.0083160400390625,-1.004791259765625,226.4248046875,192.24749755859375,-619.0551147460938,,,,,,,,,,
0,2019-06-14 10:20:22.4300,05:13,50,0,2019-06-14 10:20:28.8440,1560522028.844445,-0.01948208863836566,0.017226124878959536,-0.013636982677859746,0.000823974609375,-0.00677490234375,-1.002777099609375,226.4219512939453,192.34393310546875,-619.1177368164062,,,,,,,,,,
0,2019-06-14 10:20:22.4300,05:13,50,0,2019-06-14 10:20:28.8600,1560522028.859774,-0.01948208863836566,0.017226124878959536,-0.013636982677859746,0.000732421875,-0.00787353515625,-1.0042572021484375,226.87484741210938,192.22987365722656,-619.058349609375,,,,,,,,,,
0,2019-06-14 10:20:22.4300,05:13,50,0,2019-06-14 10:20:28.8770,1560522028.877456,-0.017081515231768235,0.016702813724758965,-0.013049489341388268,0.0010223388671875,-0.0068817138671875,-1.0023345947265625,226.15760803222656,192.4609375,-619.1014404296875,,,,,,,,,,
0,2019-06-14 10:20:22.4300,05:13,50,0,2019-06-14 10:20:28.8930,1560522028.893279,-0.01868820031741304,0.01627511005369224,-0.012297678965658898,0.0010223388671875,-0.0068817138671875,-1.0023345947265625,226.71595764160156,192.43002319335938,-618.8660278320312,,,,,,,,,,
0,2019-06-14 10:20:22.4300,05:13,50,0,2019-06-14 10:20:28.9110,1560522028.9109612,-0.018175009175354768,0.015852466388696664,-0.012397281190427862,0.000579833984375,-0.0054779052734375,-1.0031585693359375,226.1723175048828,192.25576782226562,-619.0773315429688,,,,,,,,,,
0,2019-06-14 10:20:22.4300,05:13,50,0,2019-06-14 10:20:28.9440,1560522028.944182,-0.01864159499833665,0.01623409737290502,-0.012677445737104198,0.0010833740234375,-0.0066070556640625,-1.006500244140625,226.68540954589844,192.41505432128906,-619.1482543945312,,,,,,,,,,
0,2019-06-14 10:20:22.4300,05:13,50,0,2019-06-14 10:20:28.9600,1560522028.959756,-0.01864159499833665,0.01623409737290502,-0.012677445737104198,-7.62939453125e-05,-0.0057373046875,-1.00457763671875,227.28958129882812,192.52398681640625,-619.3917236328125,,,,,,,,,,
0,2019-06-14 10:20:22.4300,05:13,50,0,2019-06-14 10:20:28.9770,1560522028.977488,-0.018424547369495194,0.01700907725011808,-0.012323511628232666,0.0003814697265625,-0.004852294921875,-0.997833251953125,227.0447998046875,192.5146026611328,-619.335205078125,,,,,,,,,,
0,2019-06-14 10:20:22.4300,05:13,50,0,2019-06-14 10:20:28.9940,1560522028.99432,-0.01603782240056618,0.016325976430512753,-0.011669172948400199,0.000152587890625,-0.00714111328125,-1.0075531005859375,226.58924865722656,192.1630401611328,-619.0938720703125,,,,,,,,,,
0,2019-06-14 10:20:22.4300,05:13,50,0,2019-06-14 10:20:29.0110,1560522029.01084,-0.01949993181766919,0.017201890113039815,-0.013665744817632603,0.000152587890625,-0.00714111328125,-1.0075531005859375,226.27401733398438,192.28150939941406,-619.0850219726562,,,,,,,,,,
0,2019-06-14 10:20:22.4300,05:13,50,0,2019-06-14 10:20:29.0440,1560522029.044497,-0.01784530983240296,0.017501229419564723,-0.012333631640374968,0.000732421875,-0.00592041015625,-1.007904052734375,226.22982788085938,192.3994598388672,-619.1039428710938,,,,,,,,,,
0,2019-06-14 10:20:22.4300,05:13,50,0,2019-06-14 10:20:29.0600,1560522029.059782,-0.01784530983240296,0.017501229419564723,-0.012333631640374968,0.0005340576171875,-0.0068511962890625,-1.0058441162109375,226.22982788085938,192.3994598388672,-619.1039428710938,,,,,,,,,,
0,2019-06-14 10:20:22.4300,05:13,50,0,2019-06-14 10:20:29.0760,1560522029.075959,-0.01837128414769361,0.01569400830383695,-0.012121111385386645,0.0005645751953125,-0.0060577392578125,-1.00604248046875,226.97889709472656,192.32916259765625,-619.2283935546875,,,,,,,,,,
0,2019-06-14 10:20:22.4300,05:13,50,0,2019-06-14 10:20:29.0930,1560522029.093185,-0.018755045660774027,0.01861602865187189,-0.013719274355543196,0.0005645751953125,-0.0060577392578125,-1.00604248046875,226.67628479003906,192.48634338378906,-619.5452880859375,,,,,,,,,,
0,2019-06-14 10:20:22.4300,05:13,50,0,2019-06-14 10:20:29.1110,1560522029.1108398,-0.018427743162803288,0.016970994046529946,-0.011781025714183525,0.0013580322265625,-0.0059967041015625,-1.004058837890625,226.89427185058594,192.4129638671875,-619.125244140625,,,,,,,,,,
0,2019-06-14 10:20:22.4300,05:13,50,0,2019-06-14 10:20:29.1430,1560522029.143465,-0.01861602865187189,0.018181933394188974,-0.013554691000176299,0.0003509521484375,-0.006988525390625,-1.0077972412109375,226.601806640625,192.44033813476562,-619.1436157226562,,,,,,,,,,
0,2019-06-14 10:20:22.4300,05:13,50,0,2019-06-14 10:20:29.1610,1560522029.160821,-0.01861602865187189,0.018181933394188974,-0.013554691000176299,0.0006256103515625,-0.0046539306640625,-1.003997802734375,226.601806640625,192.44033813476562,-619.1436157226562,,,,,,,,,,
0,2019-06-14 10:20:22.4300,05:13,50,0,2019-06-14 10:20:29.1770,1560522029.177466,-0.018457836883121186,0.016166985713435025,-0.012059326048096806,0.0014190673828125,-0.0072174072265625,-1.0054473876953125,226.18589782714844,192.2400665283203,-619.1416015625,,,,,,,,,,
0,2019-06-14 10:20:22.4300,05:13,50,0,2019-06-14 10:20:29.1940,1560522029.194299,-0.01732865658092759,0.015788816838643773,-0.013228187450532584,0.001251220703125,-0.0063323974609375,-1.0028839111328125,226.8785858154297,192.55845642089844,-619.328369140625,,,,,,,,,,
0,2019-06-14 10:20:22.4300,05:13,50,0,2019-06-14 10:20:29.2110,1560522029.211019,-0.019426961203801017,0.01773505496327368,-0.012153601950685612,0.001251220703125,-0.0063323974609375,-1.0028839111328125,227.07594299316406,192.43309020996094,-619.3544921875,,,,,,,,,,
0,2019-06-14 10:20:22.4300,05:13,50,0,2019-06-14 10:20:29.2440,1560522029.244236,-0.017499631522910675,0.017194166945878584,-0.013457751936497415,0.0009002685546875,-0.0045318603515625,-1.0036163330078125,226.51405334472656,192.31602478027344,-619.1381225585938,,,,,,,,,,
0,2019-06-14 10:20:22.4300,05:13,50,0,2019-06-14 10:20:29.2610,1560522029.260987,-0.017499631522910675,0.017194166945878584,-0.013457751936497415,0.002410888671875,-0.006744384765625,-1.0064544677734375,226.42294311523438,192.42550659179688,-619.1083984375,,,,,,,,,,
0,2019-06-14 10:20:22.4300,05:13,50,0,2019-06-14 10:20:29.2780,1560522029.277619,-0.01813373017845854,0.015826633726122898,-0.01228462947631751,0.0011444091796875,-0.0050811767578125,-1.00555419921875,226.42294311523438,192.42550659179688,-619.1083984375,,,,,,,,,,
0,2019-06-14 10:20:22.4300,05:13,50,0,2019-06-14 10:20:29.2940,1560522029.2943091,-0.018275144032341747,0.01573422203629715,-0.011888883738331735,0.0005035400390625,-0.0078125,-1.000396728515625,226.59381103515625,192.3870086669922,-619.1160888671875,,,,,,,,,,
0,2019-06-14 10:20:22.4300,05:13,50,0,2019-06-14 10:20:29.3110,1560522029.310802,-0.019608056157926407,0.018080999588874973,-0.01270540892855003,0.0005035400390625,-0.0078125,-1.000396728515625,227.21383666992188,192.48898315429688,-619.2491455078125,,,,,,,,,,
0,2019-06-14 10:20:22.4300,05:13,50,0,2019-06-14 10:20:29.3440,1560522029.3442159,-0.017611217972584994,0.017096961566090692,-0.012722186843417528,0.00054931640625,-0.0047149658203125,-1.0046539306640625,226.31993103027344,192.24232482910156,-619.0423583984375,,,,,,,,,,
0,2019-06-14 10:20:22.4300,05:13,50,0,2019-06-14 10:20:29.3610,1560522029.3607779,-0.017611217972584994,0.017096961566090692,-0.012722186843417528,-1.52587890625e-05,-0.0055389404296875,-1.0046234130859375,226.04287719726562,192.2509002685547,-619.36962890625,,,,,,,,,,
0,2019-06-14 10:20:22.4300,05:13,50,0,2019-06-14 10:20:29.3780,1560522029.3776789,-0.01888554055418791,0.016175507828923276,-0.013721138568306252,0.000579833984375,-0.007904052734375,-1.004638671875,225.94766235351562,192.2926788330078,-618.95947265625,,,,,,,,,,
0,2019-06-14 10:20:22.4300,05:13,50,0,2019-06-14 10:20:29.3940,1560522029.39436,-0.0175206704955223,0.018049307971903027,-0.012204734643615133,0.00164794921875,-0.005462646484375,-1.0018157958984375,225.94766235351562,192.2926788330078,-618.95947265625,,,,,,,,,,
0,2019-06-14 10:20:22.4300,05:13,50,0,2019-06-14 10:20:29.4110,1560522029.410806,-0.018241055570388735,0.016737434818929996,-0.013688115370789268,0.00164794921875,-0.005462646484375,-1.0018157958984375,225.91748046875,192.156005859375,-619.1893310546875,,,,,,,,,,
0,2019-06-14 10:20:22.4300,05:13,50,0,2019-06-14 10:20:29.4440,1560522029.444233,-0.01854146014134967,0.016322248004986644,-0.013756558610804305,-4.57763671875e-05,-0.006103515625,-1.00408935546875,226.89993286132812,192.6177520751953,-619.3406982421875,,,,,,,,,,
0,2019-06-14 10:20:22.4300,05:13,50,0,2019-06-14 10:20:29.4610,1560522029.460668,-0.01854146014134967,0.016322248004986644,-0.013756558610804305,0.001800537109375,-0.007293701171875,-1.00726318359375,226.232421875,192.25514221191406,-619.1001586914062,,,,,,,,,,
0,2019-06-14 10:20:22.4300,05:13,50,0,2019-06-14 10:20:29.4780,1560522029.4777699,-0.01849432219005527,0.01673850008336603,-0.014570154323823511,0.00079345703125,-0.005279541015625,-1.0051422119140625,225.9044952392578,192.5115203857422,-618.8831787109375,,,,,,,,,,
0,2019-06-14 10:20:22.4300,05:13,50,0,2019-06-14 10:20:29.4930,1560522029.493278,-0.0193153747541267,0.017069531006862877,-0.013132846283507747,0.00079345703125,-0.005279541015625,-1.0051422119140625,226.39463806152344,192.16094970703125,-619.248046875,,,,,,,,,,
0,2019-06-14 10:20:22.4300,05:13,50,0,2019-06-14 10:20:29.5110,1560522029.5109959,-0.01840697050630067,0.016517191396780442,-0.013103551511516875,-0.000946044921875,-0.0043487548828125,-1.0015106201171875,226.39463806152344,192.16094970703125,-619.248046875,,,,,,,,,,
0,2019-06-14 10:20:22.4300,05:13,50,0,2019-06-14 10:20:29.5440,1560522029.5442538,-0.01815210598998009,0.0166871010743275,-0.011827098401041897,-0.002288818359375,-0.00482177734375,-1.000396728515625,227.07102966308594,192.4682159423828,-619.5900268554688,,,,,,,,,,
0,2019-06-14 10:20:22.4300,05:13,50,0,2019-06-14 10:20:29.5600,1560522029.559781,-0.01815210598998009,0.0166871010743275,-0.011827098401041897,0.0003509521484375,-0.0068359375,-1.0063018798828125,227.1020965576172,192.5027618408203,-619.3462524414062,,,,,,,,,,
0,2019-06-14 10:20:22.4300,05:13,50,0,2019-06-14 10:20:29.5770,1560522029.577479,-0.01809937540039652,0.016235961585668077,-0.012235627312260052,0.0013885498046875,-0.0065460205078125,-1.0070953369140625,226.69229125976562,192.27821350097656,-619.0819091796875,,,,,,,,,,
0,2019-06-14 10:20:22.4300,05:13,50,0,2019-06-14 10:20:29.5950,1560522029.594778,-0.01757819477506801,0.016368054375736005,-0.012473980229822143,-6.103515625e-05,-0.0050811767578125,-1.004241943359375,226.62997436523438,192.1247100830078,-619.0048217773438,,,,,,,,,,
0,2019-06-14 10:20:22.4300,05:13,50,0,2019-06-14 10:20:29.6110,1560522029.6111798,-0.018107897515884774,0.015908925403806347,-0.013297429638874644,-6.103515625e-05,-0.0050811767578125,-1.004241943359375,226.6219482421875,192.1851806640625,-619.4404296875,,,,,,,,,,
0,2019-06-14 10:20:22.4300,05:13,50,0,2019-06-14 10:20:29.6430,1560522029.643018,-0.01825703453692921,0.01564660403643354,-0.012907809171396051,0.0003204345703125,-0.0065765380859375,-1.002899169921875,226.61013793945312,192.16781616210938,-619.0111083984375,,,,,,,,,,
0,2019-06-14 10:20:22.4300,05:13,50,0,2019-06-14 10:20:29.6610,1560522029.660818,-0.01825703453692921,0.01564660403643354,-0.012907809171396051,6.103515625e-05,-0.00543212890625,-1.003265380859375,227.09674072265625,192.60433959960938,-619.3524169921875,,,,,,,,,,
0,2019-06-14 10:20:22.4300,05:13,50,0,2019-06-14 10:20:29.6780,1560522029.677773,-0.017881795139337044,0.016591493591193655,-0.012970659773121921,0.0033111572265625,-0.0055999755859375,-0.999359130859375,227.11317443847656,192.52171325683594,-619.4208374023438,,,,,,,,,,
0,2019-06-14 10:20:22.4300,05:13,50,0,2019-06-14 10:20:29.6930,1560522029.693249,-0.018131599649586477,0.016247679494464425,-0.012295015804568819,0.0033111572265625,-0.0055999755859375,-0.999359130859375,226.3844757080078,192.26760864257812,-619.3544921875,,,,,,,,,,
0,2019-06-14 10:20:22.4300,05:13,50,0,2019-06-14 10:20:29.7110,1560522029.710884,-0.0177592897291934,0.01761707692698317,-0.011701663513699164,0.0018463134765625,-0.0068359375,-1.006103515625,226.6088104248047,192.1690216064453,-619.1680908203125,,,,,,,,,,
0,2019-06-14 10:20:22.4300,05:13,50,0,2019-06-14 10:20:29.7440,1560522029.7443,-0.0181726123303737,0.015266837264988242,-0.013505955152227848,0.000457763671875,-0.00494384765625,-1.000640869140625,226.3533172607422,192.0249481201172,-619.09912109375,,,,,,,,,,
0,2019-06-14 10:20:22.4300,05:13,50,0,2019-06-14 10:20:29.7600,1560522029.759819,-0.0181726123303737,0.015266837264988242,-0.013505955152227848,0.000732421875,-0.0057525634765625,-1.0096588134765625,226.2578887939453,192.11134338378906,-619.5087280273438,,,,,,,,,,
0,2019-06-14 10:20:22.4300,05:13,50,0,2019-06-14 10:20:29.7780,1560522029.777504,-0.01842641158225825,0.017221331188997394,-0.01170858773253337,0.0011444091796875,-0.0060272216796875,-1.0010528564453125,226.7118377685547,192.4131622314453,-619.3138427734375,,,,,,,,,,
0,2019-06-14 10:20:22.4300,05:13,50,0,2019-06-14 10:20:29.7940,1560522029.794266,-0.01935612111880491,0.015276424644912526,-0.01307984937781517,0.00054931640625,-0.0067291259765625,-1.005401611328125,227.10015869140625,192.46815490722656,-619.5925903320312,,,,,,,,,,
0,2019-06-14 10:20:22.4300,05:13,50,0,2019-06-14 10:20:29.8110,1560522029.810849,-0.019330022140122135,0.01702159410724145,-0.013478524593000033,0.00054931640625,-0.0067291259765625,-1.005401611328125,226.2498321533203,192.254150390625,-619.2984619140625,,,,,,,,,,
0,2019-06-14 10:20:22.4300,05:13,50,0,2019-06-14 10:20:29.8440,1560522029.844359,-0.017025056216658552,0.016551279858733458,-0.012031096540541967,-0.0007171630859375,-0.0049285888671875,-1.003662109375,226.2716064453125,192.18072509765625,-619.3857421875,,,,,,,,,,
0,2019-06-14 10:20:22.4300,05:13,50,0,2019-06-14 10:20:29.8610,1560522029.8610969,-0.017025056216658552,0.016551279858733458,-0.012031096540541967,0.00048828125,-0.0042724609375,-1.0049896240234375,226.2716064453125,192.18072509765625,-619.3857421875,,,,,,,,,,
0,2019-06-14 10:20:22.4300,05:13,50,0,2019-06-14 10:20:29.8780,1560522029.877671,-0.01870604349671657,0.017049290982578274,-0.013446566659919081,-0.0002593994140625,-0.0077362060546875,-1.0029296875,226.29661560058594,192.40103149414062,-619.0637817382812,,,,,,,,,,
0,2019-06-14 10:20:22.4300,05:13,50,0,2019-06-14 10:20:29.8940,1560522029.894314,-0.018283666147830002,0.016348879615887435,-0.012467056010987939,-0.000335693359375,-0.0067291259765625,-1.00592041015625,227.16476440429688,192.44381713867188,-619.5211181640625,,,,,,,,,,
0,2019-06-14 10:20:22.4300,05:13,50,0,2019-06-14 10:20:29.9110,1560522029.910902,-0.017405621936430877,0.016361396473010808,-0.01200632914240423,-0.000335693359375,-0.0067291259765625,-1.00592041015625,227.1832275390625,192.6584930419922,-619.403076171875,,,,,,,,,,
0,2019-06-14 10:20:22.4300,05:13,50,0,2019-06-14 10:20:29.9440,1560522029.944298,-0.01803253005703553,0.01579414316082393,-0.012611133025961225,-0.000732421875,-0.00506591796875,-1.004425048828125,226.37620544433594,192.18548583984375,-619.3734130859375,,,,,,,,,,
0,2019-06-14 10:20:22.4300,05:13,50,0,2019-06-14 10:20:29.9610,1560522029.960891,-0.01803253005703553,0.01579414316082393,-0.012611133025961225,0.0017547607421875,-0.006072998046875,-1.00616455078125,226.64434814453125,192.0689239501953,-618.9428100585938,,,,,,,,,,
0,2019-06-14 10:20:22.4300,05:13,50,0,2019-06-14 10:20:29.9780,1560522029.977505,-0.019697804686662077,0.01752972524322857,-0.012358399038512704,0.0006103515625,-0.0052337646484375,-1.0041046142578125,226.64434814453125,192.0689239501953,-618.9428100585938,,,,,,,,,,
0,2019-06-14 10:20:22.4300,05:13,50,0,2019-06-14 10:20:29.9940,1560522029.9942741,-0.019370502188691338,0.01659069464286663,-0.013140835766777985,0.00018310546875,-0.005615234375,-1.00506591796875,226.23236083984375,192.36363220214844,-618.9056396484375,,,,,,,,,,
0,2019-06-14 10:20:22.4300,05:13,50,0,2019-06-14 10:20:30.0110,1560522030.0108418,-0.018702581387299466,0.015805328437402264,-0.011807657325084318,0.00018310546875,-0.005615234375,-1.00506591796875,226.94412231445312,192.41758728027344,-619.410888671875,,,,,,,,,,
0,2019-06-14 10:20:22.4300,05:13,50,0,2019-06-14 10:20:30.0440,1560522030.044321,-0.01882774995853319,0.01681013911668916,-0.012902216533106886,-0.0004425048828125,-0.007110595703125,-1.00518798828125,226.2349853515625,192.2018280029297,-619.3182983398438,,,,,,,,,,
0,2019-06-14 10:20:22.4300,05:13,50,0,2019-06-14 10:20:30.0610,1560522030.060956,-0.01882774995853319,0.01681013911668916,-0.012902216533106886,0.0008392333984375,-0.0057373046875,-1.0001983642578125,226.36195373535156,192.2039337158203,-619.3536376953125,,,,,,,,,,
0,2019-06-14 10:20:22.4300,05:13,50,0,2019-06-14 10:20:30.0780,1560522030.0778708,-0.018182466026406992,0.015729162030225997,-0.011465973757227152,-0.000244140625,-0.0069122314453125,-1.0002288818359375,226.22386169433594,192.1801300048828,-619.213134765625,,,,,,,,,,
0,2019-06-14 10:20:22.4300,05:13,50,0,2019-06-14 10:20:30.0940,1560522030.094173,-0.018395785229722336,0.017023724636113513,-0.012175439871624262,0.00079345703125,-0.0060272216796875,-1.0063323974609375,226.22386169433594,192.1801300048828,-619.213134765625,,,,,,,,,,
0,2019-06-14 10:20:22.4300,05:13,50,0,2019-06-14 10:20:30.1110,1560522030.110898,-0.01818779234858715,0.01577763156206544,-0.012308065293910207,0.00079345703125,-0.0060272216796875,-1.0063323974609375,226.43475341796875,192.20973205566406,-619.3604736328125,,,,,,,,,,
0,2019-06-14 10:20:22.4300,05:13,50,0,2019-06-14 10:20:30.1440,1560522030.144322,-0.017740114969344828,0.016586433585122504,-0.01241672226638544,0.001434326171875,-0.0060272216796875,-1.007781982421875,226.94235229492188,192.5572967529297,-619.9002685546875,,,,,,,,,,
0,2019-06-14 10:20:22.4300,05:13,50,0,2019-06-14 10:20:30.1610,1560522030.160847,-0.017740114969344828,0.016586433585122504,-0.01241672226638544,0.0009918212890625,-0.0072784423828125,-1.004791259765625,226.57301330566406,192.27890014648438,-618.946044921875,,,,,,,,,,
0,2019-06-14 10:20:22.4300,05:13,50,0,2019-06-14 10:20:30.1780,1560522030.177522,-0.017952368908224145,0.016934242423486852,-0.01350329199113777,0.001007080078125,-0.00762939453125,-1.003753662109375,226.55270385742188,192.44500732421875,-619.392333984375,,,,,,,,,,
0,2019-06-14 10:20:22.4300,05:13,50,0,2019-06-14 10:20:30.1940,1560522030.194374,-0.018100973297050568,0.01530172467526828,-0.012081430285144464,-0.0013427734375,-0.006683349609375,-1.002471923828125,226.2339324951172,192.377685546875,-619.1480712890625,,,,,,,,,,
0,2019-06-14 10:20:22.4300,05:13,50,0,2019-06-14 10:20:30.2110,1560522030.210877,-0.01775023498148713,0.015152055022005825,-0.013012205086127158,-0.0013427734375,-0.006683349609375,-1.002471923828125,226.2339324951172,192.377685546875,-619.1480712890625,,,,,,,,,,
0,2019-06-14 10:20:22.4300,05:13,50,0,2019-06-14 10:20:30.2440,1560522030.244201,-0.018066884835097552,0.015964319154479992,-0.013746438598662003,-0.0004425048828125,-0.0059814453125,-1.00518798828125,226.76287841796875,192.53265380859375,-619.5390014648438,,,,,,,,,,
0,2019-06-14 10:20:22.4300,05:13,50,0,2019-06-14 10:20:30.2610,1560522030.26088,-0.018066884835097552,0.015964319154479992,-0.013746438598662003,0.00018310546875,-0.0073089599609375,-1.0031585693359375,227.14564514160156,192.2453155517578,-619.1327514648438,,,,,,,,,,
0,2019-06-14 10:20:22.4300,05:13,50,0,2019-06-14 10:20:30.2780,1560522030.277577,-0.017707624404045864,0.015354455264851848,-0.012340822175318181,-0.000244140625,-0.007049560546875,-1.005859375,226.14254760742188,192.247802734375,-619.2622680664062,,,,,,,,,,
0,2019-06-14 10:20:22.4300,05:13,50,0,2019-06-14 10:20:30.2940,1560522030.294273,-0.019038938632976475,0.016090020357931733,-0.0124422886128502,0.001678466796875,-0.0065765380859375,-1.00213623046875,226.3876190185547,192.2759552001953,-619.4046630859375,,,,,,,,,,
0,2019-06-14 10:20:22.4300,05:13,50,0,2019-06-14 10:20:30.3110,1560522030.3112822,-0.018693260323484187,0.016153936224093637,-0.012248943117710449,0.001678466796875,-0.0065765380859375,-1.00213623046875,225.8841094970703,192.23471069335938,-619.4979858398438,,,,,,,,,,
0,2019-06-14 10:20:22.4300,05:13,50,0,2019-06-14 10:20:30.3440,1560522030.344315,-0.0186061749558386,0.015689747246092824,-0.013594105784309472,0.0019378662109375,-0.0081024169921875,-1.0054779052734375,226.2296905517578,192.15902709960938,-619.3162841796875,,,,,,,,,,
0,2019-06-14 10:20:22.4300,05:13,50,0,2019-06-14 10:20:30.3610,1560522030.360921,-0.0186061749558386,0.015689747246092824,-0.013594105784309472,-0.001922607421875,-0.0052490234375,-1.0026702880859375,227.0789031982422,192.54019165039062,-619.7406005859375,,,,,,,,,,
0,2019-06-14 10:20:22.4300,05:13,50,0,2019-06-14 10:20:30.3780,1560522030.3775249,-0.016610402034933216,0.016638897858597065,-0.013149890514484255,0.0021820068359375,-0.006256103515625,-1.00494384765625,227.05116271972656,192.56893920898438,-619.1047973632812,,,,,,,,,,
0,2019-06-14 10:20:22.4300,05:13,50,0,2019-06-14 10:20:30.3940,1560522030.394376,-0.01863280656673939,0.016643425232450198,-0.010872887782466506,0.0018157958984375,-0.0062103271484375,-1.002349853515625,226.13462829589844,192.1532440185547,-619.2666625976562,,,,,,,,,,
0,2019-06-14 10:20:22.4300,05:13,50,0,2019-06-14 10:20:30.4110,1560522030.410966,-0.017749968665378122,0.016670056843350992,-0.013128318909654612,0.0018157958984375,-0.0062103271484375,-1.002349853515625,226.17884826660156,192.41802978515625,-619.1849975585938,,,,,,,,,,
0,2019-06-14 10:20:22.4300,05:13,50,0,2019-06-14 10:20:30.4440,1560522030.444357,-0.017440243030601908,0.01572383570804584,-0.013430854009487615,0.0028076171875,-0.0062408447265625,-1.0035552978515625,226.59121704101562,192.53253173828125,-619.1904296875,,,,,,,,,,
0,2019-06-14 10:20:22.4300,05:13,50,0,2019-06-14 10:20:30.4610,1560522030.460719,-0.017440243030601908,0.01572383570804584,-0.013430854009487615,-1.52587890625e-05,-0.0071258544921875,-1.0054931640625,226.19866943359375,192.3217315673828,-619.4185180664062,,,,,,,,,,
0,2019-06-14 10:20:22.4300,05:13,50,0,2019-06-14 10:20:30.4780,1560522030.477538,-0.018056232190737233,0.01658536832068647,-0.011899270066583045,0.0010223388671875,-0.0046234130859375,-1.0067901611328125,227.0380096435547,192.2604522705078,-619.654052734375,,,,,,,,,,
0,2019-06-14 10:20:22.4300,05:13,50,0,2019-06-14 10:20:30.4940,1560522030.494275,-0.018919629016140926,0.01825809980136524,-0.012087555555651646,7.62939453125e-05,-0.0070648193359375,-1.00286865234375,227.1571807861328,192.3857879638672,-619.452392578125,,,,,,,,,,
0,2019-06-14 10:20:22.4300,05:13,50,0,2019-06-14 10:20:30.5110,1560522030.511047,-0.01842534631782222,0.016027169756205863,-0.012177037768278309,7.62939453125e-05,-0.0070648193359375,-1.00286865234375,226.3695831298828,192.24375915527344,-619.1658935546875,,,,,,,,,,
0,2019-06-14 10:20:22.4300,05:13,50,0,2019-06-14 10:20:30.5440,1560522030.5443459,-0.016942498222866097,0.01640453968267009,-0.012064918686385973,0.00042724609375,-0.0045928955078125,-1.004486083984375,226.41326904296875,192.24786376953125,-619.3533325195312,,,,,,,,,,
0,2019-06-14 10:20:22.4300,05:13,50,0,2019-06-14 10:20:30.5610,1560522030.560814,-0.016942498222866097,0.01640453968267009,-0.012064918686385973,0.0010986328125,-0.005401611328125,-1.0010223388671875,226.41326904296875,192.24786376953125,-619.3533325195312,,,,,,,,,,
0,2019-06-14 10:20:22.4300,05:13,50,0,2019-06-14 10:20:30.5780,1560522030.577557,-0.018118283844136083,0.017172329024939936,-0.012677445737104198,0.00018310546875,-0.006256103515625,-1.0048675537109375,226.2590789794922,192.39071655273438,-619.38525390625,,,,,,,,,,
0,2019-06-14 10:20:22.4300,05:13,50,0,2019-06-14 10:20:30.5940,1560522030.594274,-0.018365425193295433,0.016793893834039675,-0.01201138914847538,0.00018310546875,-0.00567626953125,-1.0027618408203125,227.28219604492188,192.370849609375,-619.4805908203125,,,,,,,,,,
0,2019-06-14 10:20:22.4300,05:13,50,0,2019-06-14 10:20:30.6110,1560522030.611075,-0.018532405393643404,0.01536564054143018,-0.013361878137254563,0.00018310546875,-0.00567626953125,-1.0027618408203125,226.97640991210938,192.39254760742188,-619.313720703125,,,,,,,,,,
0,2019-06-14 10:20:22.4300,05:13,50,0,2019-06-14 10:20:30.6430,1560522030.64318,-0.018278073509540835,0.015794675793041946,-0.012654276235620508,-0.0008697509765625,-0.005340576171875,-1.0050811767578125,226.62945556640625,192.25241088867188,-619.4884643554688,,,,,,,,,,
0,2019-06-14 10:20:22.4300,05:13,50,0,2019-06-14 10:20:30.6610,1560522030.660987,-0.018278073509540835,0.015794675793041946,-0.012654276235620508,0.001739501953125,-0.0069580078125,-1.0052337646484375,226.60450744628906,192.39927673339844,-619.2032470703125,,,,,,,,,,
0,2019-06-14 10:20:22.4300,05:13,50,0,2019-06-14 10:20:30.6780,1560522030.677582,-0.017024523584440537,0.017282583894069215,-0.013317669663159247,0.000213623046875,-0.005279541015625,-1.003814697265625,226.60450744628906,192.39927673339844,-619.2032470703125,,,,,,,,,,
0,2019-06-14 10:20:22.4300,05:13,50,0,2019-06-14 10:20:30.6940,1560522030.694499,-0.017767545528572647,0.015771772607667264,-0.013312343340979088,-0.001312255859375,-0.007293701171875,-1.00177001953125,226.68582153320312,192.4752960205078,-619.1944580078125,,,,,,,,,,
0,2019-06-14 10:20:22.4300,05:13,50,0,2019-06-14 10:20:30.7110,1560522030.710908,-0.017166203754432754,0.016444220782912272,-0.012768792162493915,-0.001312255859375,-0.007293701171875,-1.00177001953125,227.2861785888672,192.47943115234375,-619.4454345703125,,,,,,,,,,
0,2019-06-14 10:20:22.4300,05:13,50,0,2019-06-14 10:20:30.7440,1560522030.744122,-0.018708972973915657,0.016425578655281717,-0.013570137334498758,0.0002899169921875,-0.0062255859375,-1.0037994384765625,226.33094787597656,192.35018920898438,-619.252685546875,,,,,,,,,,
0,2019-06-14 10:20:22.4300,05:13,50,0,2019-06-14 10:20:30.7610,1560522030.76082,-0.018708972973915657,0.016425578655281717,-0.013570137334498758,-0.00018310546875,-0.006439208984375,-1.0064239501953125,226.15261840820312,192.02101135253906,-619.4612426757812,,,,,,,,,,
0,2019-06-14 10:20:22.4300,05:13,50,0,2019-06-14 10:20:30.7780,1560522030.7779999,-0.018293786159972302,0.01676246853317674,-0.012443886509504249,4.57763671875e-05,-0.0074310302734375,-1.00445556640625,226.66915893554688,192.30508422851562,-619.0482177734375,,,,,,,,,,
0,2019-06-14 10:20:22.4300,05:13,50,0,2019-06-14 10:20:30.7930,1560522030.793479,-0.019165971416973255,0.015619972425532747,-0.013551495206868203,0.0005645751953125,-0.0065765380859375,-1.007110595703125,226.66915893554688,192.30508422851562,-619.0482177734375,,,,,,,,,,
0,2019-06-14 10:20:22.4300,05:13,50,0,2019-06-14 10:20:30.8110,1560522030.81092,-0.016514261919581358,0.015582688170271638,-0.013210077955120044,0.0005645751953125,-0.0065765380859375,-1.007110595703125,226.61233520507812,192.4961700439453,-619.2135009765625,,,,,,,,,,
0,2019-06-14 10:20:22.4300,05:13,50,0,2019-06-14 10:20:30.8440,1560522030.84432,-0.01735235871462929,0.017100689991616805,-0.012113388218225414,0.001678466796875,-0.0068511962890625,-1.0036773681640625,226.02029418945312,192.1968536376953,-619.1063232421875,,,,,,,,,,
0,2019-06-14 10:20:22.4300,05:13,50,0,2019-06-14 10:20:30.8610,1560522030.8608751,-0.01735235871462929,0.017100689991616805,-0.012113388218225414,-6.103515625e-05,-0.0063629150390625,-1.0035552978515625,226.40203857421875,192.16419982910156,-619.0753173828125,,,,,,,,,,
0,2019-06-14 10:20:22.4300,05:13,50,0,2019-06-14 10:20:30.8780,1560522030.8775702,-0.018616827600198914,0.01671905900740845,-0.012199408321434974,-0.000946044921875,-0.005523681640625,-1.000152587890625,225.97647094726562,192.19375610351562,-619.34375,,,,,,,,,,
0,2019-06-14 10:20:22.4300,05:13,50,0,2019-06-14 10:20:30.8950,1560522030.89465,-0.01962083933115879,0.015809589495146388,-0.013694506957405459,0.001708984375,-0.00506591796875,-1.0025634765625,226.3673553466797,192.46267700195312,-619.1729736328125,,,,,,,,,,
0,2019-06-14 10:20:22.4300,05:13,50,0,2019-06-14 10:20:30.9110,1560522030.9109058,-0.018174476543136753,0.016115320388287488,-0.010929080481467178,0.001708984375,-0.00506591796875,-1.0025634765625,226.3673553466797,192.46267700195312,-619.1729736328125,,,,,,,,,,
0,2019-06-14 10:20:22.4300,05:13,50,0,2019-06-14 10:20:30.9430,1560522030.9432678,-0.01821202711450687,0.016307866935100217,-0.011731224601799045,-0.0013427734375,-0.006103515625,-1.0018310546875,226.87948608398438,192.88380432128906,-619.5325317382812,,,,,,,,,,
0,2019-06-14 10:20:22.4300,05:13,50,0,2019-06-14 10:20:30.9610,1560522030.960784,-0.01821202711450687,0.016307866935100217,-0.011731224601799045,-0.0002288818359375,-0.00482177734375,-1.00421142578125,226.37612915039062,192.33738708496094,-619.4036865234375,,,,,,,,,,
0,2019-06-14 10:20:22.4300,05:13,50,0,2019-06-14 10:20:30.9780,1560522030.9776611,-0.018511899053249792,0.017095629985545653,-0.01289502599816367,0.0005340576171875,-0.00634765625,-1.0071563720703125,226.39288330078125,192.3627166748047,-619.3162841796875,,,,,,,,,,
0,2019-06-14 10:20:22.4300,05:13,50,0,2019-06-14 10:20:30.9940,1560522030.994317,-0.016661534727862738,0.015751266267273654,-0.01359810052594459,0.0005035400390625,-0.0050506591796875,-1.00250244140625,226.57443237304688,192.21139526367188,-619.5657958984375,,,,,,,,,,
0,2019-06-14 10:20:22.4300,05:13,50,0,2019-06-14 10:20:31.0110,1560522031.011077,-0.018557439107890147,0.01624208685617526,-0.012829512235347722,0.0005035400390625,-0.0050506591796875,-1.00250244140625,226.16127014160156,192.17970275878906,-619.477294921875,,,,,,,,,,
0,2019-06-14 10:20:22.4300,05:13,50,0,2019-06-14 10:20:31.0440,1560522031.044364,-0.01674888641161734,0.01647671134821124,-0.0123884927588306,0.001678466796875,-0.0076904296875,-1.005096435546875,226.05958557128906,192.43533325195312,-619.5890502929688,,,,,,,,,,
0,2019-06-14 10:20:22.4300,05:13,50,0,2019-06-14 10:20:31.0610,1560522031.060828,-0.01674888641161734,0.01647671134821124,-0.0123884927588306,0.0008087158203125,-0.00762939453125,-1.00213623046875,227.1220703125,192.4532012939453,-619.5200805664062,,,,,,,,,,
0,2019-06-14 10:20:22.4300,05:13,50,0,2019-06-14 10:20:31.0780,1560522031.077623,-0.017421867219080362,0.01664715365797631,-0.013644705845020977,0.000213623046875,-0.00518798828125,-1.0034027099609375,226.15863037109375,192.3754119873047,-619.3301391601562,,,,,,,,,,
0,2019-06-14 10:20:22.4300,05:13,50,0,2019-06-14 10:20:31.0940,1560522031.09439,-0.018193917619094332,0.01629162165245073,-0.012631639366354835,0.0010986328125,-0.0037841796875,-1.0019683837890625,226.2833709716797,192.30435180664062,-619.3436889648438,,,,,,,,,,
0,2019-06-14 10:20:22.4300,05:13,50,0,2019-06-14 10:20:31.1110,1560522031.1111422,-0.018630676037867326,0.017109744739323075,-0.01131097778178454,0.0010986328125,-0.0037841796875,-1.0019683837890625,226.40335083007812,192.17559814453125,-619.1971435546875,,,,,,,,,,
0,2019-06-14 10:20:22.4300,05:13,50,0,2019-06-14 10:20:31.1440,1560522031.144391,-0.017868479333886647,0.01667538316553115,-0.011384747343979736,0.001251220703125,-0.004058837890625,-1.0052337646484375,226.36534118652344,192.55323791503906,-619.420654296875,,,,,,,,,,
0,2019-06-14 10:20:22.4300,05:13,50,0,2019-06-14 10:20:31.1610,1560522031.160973,-0.017868479333886647,0.01667538316553115,-0.011384747343979736,0.0005645751953125,-0.006317138671875,-1.005462646484375,226.12997436523438,192.6212158203125,-619.338134765625,,,,,,,,,,
0,2019-06-14 10:20:22.4300,05:13,50,0,2019-06-14 10:20:31.1780,1560522031.177606,-0.018419487363424043,0.014935540025382384,-0.01257304982237309,0.002532958984375,-0.004669189453125,-1.006500244140625,227.09408569335938,192.64111328125,-619.66064453125,,,,,,,,,,
0,2019-06-14 10:20:22.4300,05:13,50,0,2019-06-14 10:20:31.1930,1560522031.193367,-0.018472217953007613,0.01584154742822734,-0.012468121275423969,0.0002288818359375,-0.0065460205078125,-1.000213623046875,226.194091796875,192.397705078125,-619.5197143554688,,,,,,,,,,
0,2019-06-14 10:20:22.4300,05:13,50,0,2019-06-14 10:20:31.2110,1560522031.210953,-0.018218951333341078,0.016645289445213256,-0.012834572241418873,0.0002288818359375,-0.0065460205078125,-1.000213623046875,226.494384765625,192.24789428710938,-619.3252563476562,,,,,,,,,,
0,2019-06-14 10:20:22.4300,05:13,50,0,2019-06-14 10:20:31.2440,1560522031.244443,-0.0189659680191083,0.01750016415512869,-0.0124153906858404,-0.0021820068359375,-0.0052947998046875,-1.0040740966796875,225.98858642578125,192.16680908203125,-619.317138671875,,,,,,,,,,
0,2019-06-14 10:20:22.4300,05:13,50,0,2019-06-14 10:20:31.2610,1560522031.260871,-0.0189659680191083,0.01750016415512869,-0.0124153906858404,0.0012664794921875,-0.0052032470703125,-1.0032196044921875,225.98858642578125,192.16680908203125,-619.317138671875,,,,,,,,,,
0,2019-06-14 10:20:22.4300,05:13,50,0,2019-06-14 10:20:31.2780,1560522031.277601,-0.018436265278291543,0.01729243759010251,-0.011879828990625466,-0.0006256103515625,-0.004150390625,-1.008544921875,226.18431091308594,192.5748291015625,-619.7078857421875,,,,,,,,,,
0,2019-06-14 10:20:22.4300,05:13,50,0,2019-06-14 10:20:31.2940,1560522031.2944942,-0.01883786997067549,0.017204553274129893,-0.011864915288521021,-0.00128173828125,-0.009002685546875,-1.0078277587890625,226.82754516601562,192.6516876220703,-619.5930786132812,,,,,,,,,,
0,2019-06-14 10:20:22.4300,05:13,50,0,2019-06-14 10:20:31.3110,1560522031.310962,-0.01819791236072945,0.017203221693584854,-0.012004198613532167,-0.00128173828125,-0.009002685546875,-1.0078277587890625,226.0661163330078,192.508544921875,-619.240966796875,,,,,,,,,,
0,2019-06-14 10:20:22.4300,05:13,50,0,2019-06-14 10:20:31.3450,1560522031.3446012,-0.018202173418473577,0.01721946697623434,-0.012545885579254283,0.0003204345703125,-0.00518798828125,-1.002349853515625,226.5526123046875,192.25155639648438,-619.1295166015625,,,,,,,,,,
0,2019-06-14 10:20:22.4300,05:13,50,0,2019-06-14 10:20:31.3610,1560522031.3611522,-0.018202173418473577,0.01721946697623434,-0.012545885579254283,0.002288818359375,-0.0055084228515625,-1.001800537109375,226.23728942871094,192.3587646484375,-619.3408813476562,,,,,,,,,,
0,2019-06-14 10:20:22.4300,05:13,50,0,2019-06-14 10:20:31.3780,1560522031.377582,-0.019280753659955668,0.01671772742686341,-0.014351242482219,-6.103515625e-05,-0.0069580078125,-1.003570556640625,226.23728942871094,192.3587646484375,-619.3408813476562,,,,,,,,,,
0,2019-06-14 10:20:22.4300,05:13,50,0,2019-06-14 10:20:31.3950,1560522031.394521,-0.017758490780866377,0.01594940545237555,-0.012616725664250391,0.0021209716796875,-0.0060882568359375,-1.00372314453125,226.44224548339844,192.55238342285156,-619.6314697265625,,,,,,,,,,
0,2019-06-14 10:20:22.4300,05:13,50,0,2019-06-14 10:20:31.4110,1560522031.411065,-0.019606990893490377,0.01768125910925408,-0.012828180654802682,0.0021209716796875,-0.0060882568359375,-1.00372314453125,226.9335479736328,192.4451904296875,-619.535400390625,,,,,,,,,,
